id,trial_nr,block_nr,reward_cue,reward_condition,cue_target_latency,correct_key_color,ma_condition,fb_correct,fb_flipped,last_fb_flipped,accuracy,rt,trial_in_block
1,1,1,1,1,1501,0,1,1,0,0,1,800,1
1,2,1,1,1,1501,0,1,1,0,0,1,671,2
1,3,1,1,1,1501,1,1,1,0,0,1,464,3
1,4,1,1,1,1502,1,1,1,0,0,1,598,4
1,5,1,2,0,1501,0,1,1,0,0,1,706,5
1,6,1,1,1,1501,0,1,1,0,0,1,836,6
1,7,1,1,1,1501,0,1,1,0,0,1,634,7
1,8,1,1,1,1501,0,1,1,0,0,1,724,8
1,9,1,2,0,1501,1,1,1,0,0,1,505,9
1,10,1,1,1,1501,0,1,1,0,0,1,615,10
1,11,1,2,0,1501,1,1,1,0,0,1,682,11
1,12,1,1,1,1501,1,1,0,0,0,0,714,12
1,13,1,1,1,1501,1,1,1,0,0,1,606,13
1,14,1,2,0,1501,1,1,1,0,0,1,628,14
1,15,1,1,1,1501,1,1,1,0,0,1,555,15
1,16,1,2,0,1501,0,1,1,0,0,1,476,16
1,17,1,2,0,1502,1,1,1,0,0,1,536,17
1,18,1,1,1,1501,1,1,1,0,0,1,577,18
1,19,1,1,1,1501,1,1,1,0,0,1,642,19
1,20,1,2,0,1501,1,1,1,0,0,1,462,20
1,21,1,2,0,1501,1,1,1,0,0,1,453,21
1,22,1,2,0,1501,0,1,1,0,0,1,316,22
1,23,1,2,0,1501,1,1,1,0,0,1,535,23
1,24,1,2,0,1501,0,1,1,0,0,1,541,24
1,25,1,2,0,1502,0,1,1,0,0,1,743,25
1,26,1,1,1,1501,1,1,1,0,0,1,546,26
1,27,1,1,1,1501,0,1,1,0,0,1,488,27
1,28,1,1,1,1501,0,1,1,0,0,1,548,28
1,29,1,1,1,1501,1,1,1,0,0,1,570,29
1,30,1,2,0,1502,0,1,1,0,0,1,502,30
1,31,1,2,0,1502,1,1,1,0,0,1,764,31
1,32,1,1,1,1501,1,1,1,0,0,1,540,32
1,33,1,1,1,1501,1,1,1,0,0,1,622,33
1,34,1,1,1,1502,0,1,1,0,0,1,545,34
1,35,1,2,0,1501,1,1,1,0,0,1,533,35
1,36,1,1,1,1501,1,1,1,0,0,1,514,36
1,37,1,1,1,1502,1,1,1,0,0,1,517,37
1,38,1,2,0,1501,1,1,1,0,0,1,488,38
1,39,1,1,1,1501,1,1,1,0,0,1,558,39
1,40,1,2,0,1501,0,1,1,0,0,1,394,40
1,41,1,2,0,1501,1,1,1,0,0,1,535,41
1,42,1,2,0,1501,1,1,1,0,0,1,680,42
1,43,1,1,1,1501,1,1,1,0,0,1,573,43
1,44,1,2,0,1501,0,1,1,0,0,1,319,44
1,45,1,2,0,1502,1,1,1,0,0,1,460,45
1,46,1,2,0,1501,1,1,0,0,0,0,657,46
1,47,1,2,0,1501,1,1,1,0,0,1,452,47
1,48,1,2,0,1501,1,1,1,0,0,1,412,48
1,49,1,1,1,1502,1,1,1,0,0,1,629,49
1,50,1,2,0,1501,1,1,1,0,0,1,471,50
1,51,1,2,0,1501,0,1,1,0,0,1,490,51
1,52,1,2,0,1501,1,1,1,0,0,1,503,52
1,53,1,2,0,1501,1,1,1,0,0,1,470,53
1,54,1,2,0,1501,0,1,1,0,0,1,431,54
1,55,1,1,1,1501,0,1,1,0,0,1,894,55
1,56,1,2,0,1501,0,1,0,0,0,0,804,56
1,57,1,2,0,1501,0,1,1,0,0,1,600,57
1,58,1,2,0,1501,1,1,1,0,0,1,482,58
1,59,1,2,0,1502,1,1,1,0,0,1,511,59
1,60,1,1,1,1501,1,1,1,0,0,1,451,60
1,61,1,1,1,1501,1,1,1,0,0,1,533,61
1,62,1,1,1,1501,1,1,1,0,0,1,452,62
1,63,1,2,0,1502,0,1,1,0,0,1,395,63
1,64,1,1,1,1502,0,1,1,0,0,1,474,64
1,65,1,2,0,1501,0,1,1,0,0,1,820,65
1,66,1,1,1,1501,1,1,1,0,0,1,516,66
1,67,1,1,1,1501,0,1,1,0,0,1,346,67
1,68,1,1,1,1501,0,1,0,0,0,0,586,68
1,69,1,2,0,1502,0,1,1,0,0,1,566,69
1,70,1,1,1,1501,1,1,1,0,0,1,460,70
1,71,1,1,1,1501,1,1,1,0,0,1,623,71
1,72,1,2,0,1502,0,1,1,0,0,1,553,72
1,73,1,1,1,1501,1,1,1,0,0,1,512,73
1,74,1,1,1,1501,0,1,1,0,0,1,554,74
1,75,1,2,0,1501,1,1,1,0,0,1,454,75
1,76,1,1,1,1501,0,1,1,0,0,1,592,76
1,77,1,1,1,1502,0,1,1,0,0,1,656,77
1,78,1,2,0,1502,0,1,1,0,0,1,714,78
1,79,1,2,0,1501,1,1,1,0,0,1,560,79
1,80,1,2,0,1501,1,1,1,0,0,1,590,80
1,81,1,1,1,1501,0,1,1,0,0,1,562,81
1,82,1,1,1,1501,1,1,0,0,0,0,592,82
1,83,1,1,1,1501,1,1,1,0,0,1,587,83
1,84,1,1,1,1502,0,1,1,0,0,1,672,84
1,85,1,1,1,1502,0,1,1,0,0,1,898,85
1,86,1,2,0,1501,1,1,1,0,0,1,451,86
1,87,1,2,0,1502,0,1,1,0,0,1,682,87
1,88,1,2,0,1501,0,1,1,0,0,1,536,88
1,89,1,1,1,1501,0,1,1,0,0,1,481,89
1,90,1,1,1,1501,1,1,1,0,0,1,501,90
1,91,1,1,1,1502,0,1,0,0,0,0,656,91
1,92,1,2,0,1501,1,1,1,0,0,1,582,92
1,93,1,1,1,1501,1,1,1,0,0,1,586,93
1,94,1,1,1,1501,1,1,1,0,0,1,599,94
1,95,1,1,1,1501,1,1,1,0,0,1,764,95
1,96,1,2,0,1502,1,1,1,0,0,1,481,96
1,97,1,2,0,1501,0,1,1,0,0,1,682,97
1,98,1,1,1,1502,1,1,0,0,0,0,560,98
1,99,1,1,1,1501,1,1,1,0,0,1,643,99
1,100,1,1,1,1501,1,1,1,0,0,1,654,100
1,101,1,1,1,1501,0,1,1,0,0,1,698,101
1,102,1,2,0,1501,1,1,1,0,0,1,709,102
1,103,1,2,0,1501,0,1,1,0,0,1,513,103
1,104,1,2,0,1501,1,1,1,0,0,1,582,104
1,105,1,2,0,1501,1,1,1,0,0,1,565,105
1,106,1,1,1,1501,0,1,1,0,0,1,874,106
1,107,1,2,0,1501,1,1,1,0,0,1,784,107
1,108,1,2,0,1501,0,1,1,0,0,1,479,108
1,109,1,2,0,1501,0,1,1,0,0,1,794,109
1,110,1,1,1,1501,1,1,1,0,0,1,551,110
1,111,1,2,0,1501,0,1,1,0,0,1,549,111
1,112,1,2,0,1501,1,1,1,0,0,1,532,112
1,113,1,2,0,1501,0,1,1,0,0,1,695,113
1,114,1,2,0,1502,0,1,1,0,0,1,849,114
1,115,1,1,1,1501,0,1,1,0,0,1,748,115
1,116,1,1,1,1501,0,1,1,0,0,1,746,116
1,117,1,1,1,1501,0,1,1,0,0,1,597,117
1,118,1,1,1,1501,1,1,1,0,0,1,634,118
1,119,1,1,1,1502,0,1,1,0,0,1,531,119
1,120,1,1,1,1502,1,1,1,0,0,1,820,120
1,121,2,1,1,1502,1,3,1,0,0,1,597,1
1,122,2,2,0,1501,0,3,1,0,0,1,483,2
1,123,2,1,1,1501,0,3,1,0,0,1,756,3
1,124,2,2,0,1501,1,3,1,0,0,1,400,4
1,125,2,2,0,1502,0,3,1,0,0,1,645,5
1,126,2,2,0,1501,0,3,1,0,0,1,537,6
1,127,2,1,1,1501,0,3,1,0,0,1,650,7
1,128,2,1,1,1501,0,3,1,0,0,1,506,8
1,129,2,2,0,1502,1,3,0,1,0,1,672,9
1,130,2,2,0,1502,1,3,1,0,1,1,781,10
1,131,2,2,0,1501,0,3,1,0,0,1,618,11
1,132,2,1,1,1501,0,3,1,0,0,1,860,12
1,133,2,2,0,1501,0,3,0,1,0,1,578,13
1,134,2,1,1,1501,1,3,1,0,1,1,436,14
1,135,2,1,1,1501,0,3,1,0,0,1,644,15
1,136,2,2,0,1502,1,3,0,0,0,0,652,16
1,137,2,2,0,1501,0,3,0,1,0,1,577,17
1,138,2,1,1,1501,0,3,0,1,1,1,900,18
1,139,2,2,0,1501,0,3,0,0,1,0,840,19
1,140,2,2,0,1501,1,3,1,0,0,1,633,20
1,141,2,2,0,1501,1,3,0,1,0,1,595,21
1,142,2,1,1,1501,0,3,1,0,1,1,637,22
1,143,2,2,0,1501,0,3,1,0,0,1,646,23
1,144,2,2,0,1501,1,3,0,0,0,0,779,24
1,145,2,1,1,1501,0,3,1,0,0,1,641,25
1,146,2,1,1,1501,1,3,1,0,0,1,413,26
1,147,2,2,0,1501,1,3,0,1,0,1,549,27
1,148,2,2,0,1501,0,3,0,1,1,1,712,28
1,149,2,1,1,1501,0,3,1,0,1,1,542,29
1,150,2,2,0,1501,1,3,1,0,0,1,511,30
1,151,2,1,1,1501,0,3,1,0,0,1,677,31
1,152,2,1,1,1501,0,3,1,0,0,1,496,32
1,153,2,2,0,1502,1,3,0,1,0,1,572,33
1,154,2,1,1,1502,1,3,1,0,1,1,497,34
1,155,2,2,0,1501,0,3,0,1,0,1,451,35
1,156,2,1,1,1501,1,3,0,0,1,0,578,36
1,157,2,1,1,1501,1,3,0,1,0,1,559,37
1,158,2,1,1,1502,0,3,1,0,1,1,506,38
1,159,2,2,0,1501,1,3,1,0,0,1,602,39
1,160,2,1,1,1502,1,3,0,1,0,1,514,40
1,161,2,2,0,1502,0,3,1,0,1,1,636,41
1,162,2,1,1,1501,0,3,0,0,0,0,613,42
1,163,2,1,1,1502,0,3,1,0,0,1,541,43
1,164,2,2,0,1501,0,3,0,1,0,1,542,44
1,165,2,2,0,1502,1,3,0,1,1,1,568,45
1,166,2,2,0,1502,0,3,1,0,1,1,638,46
1,167,2,2,0,1502,1,3,0,1,0,1,481,47
1,168,2,1,1,1502,1,3,0,1,1,1,730,48
1,169,2,1,1,1501,1,3,1,0,1,1,442,49
1,170,2,2,0,1501,0,3,1,0,0,1,337,50
1,171,2,2,0,1501,0,3,0,0,0,0,313,51
1,172,2,1,1,1501,1,3,1,0,0,1,576,52
1,173,2,2,0,1501,0,3,1,0,0,1,442,53
1,174,2,2,0,1501,1,3,1,0,0,1,707,54
1,175,2,1,1,1501,0,3,1,0,0,1,387,55
1,176,2,2,0,1501,1,3,1,0,0,1,644,56
1,177,2,2,0,1501,1,3,1,0,0,1,497,57
1,178,2,2,0,1501,1,3,0,1,0,1,427,58
1,179,2,1,1,1501,1,3,0,0,1,0,383,59
1,180,2,2,0,1501,0,3,1,0,0,1,525,60
1,181,2,1,1,1501,0,3,0,0,0,0,588,61
1,182,2,2,0,1501,0,3,0,1,0,1,444,62
1,183,2,1,1,1502,0,3,0,1,1,1,542,63
1,184,2,1,1,1501,1,3,0,1,1,1,654,64
1,185,2,2,0,1501,1,3,0,0,1,0,335,65
1,186,2,1,1,1501,0,3,0,1,0,1,575,66
1,187,2,2,0,1501,0,3,1,0,1,1,415,67
1,188,2,2,0,1503,1,3,1,0,0,1,509,68
1,189,2,1,1,1502,1,3,1,0,0,1,490,69
1,190,2,2,0,1501,1,3,0,1,0,1,580,70
1,191,2,1,1,1501,1,3,1,0,1,1,454,71
1,192,2,2,0,1502,0,3,1,0,0,1,251,72
1,193,2,1,1,1501,0,3,0,1,0,1,480,73
1,194,2,2,0,1501,1,3,0,0,1,0,411,74
1,195,2,2,0,1501,1,3,0,1,0,1,548,75
1,196,2,1,1,1501,1,3,0,1,1,1,453,76
1,197,2,2,0,1501,0,3,1,0,1,1,495,77
1,198,2,1,1,1501,0,3,0,0,0,0,369,78
1,199,2,2,0,1501,0,3,0,1,0,1,480,79
1,200,2,2,0,1501,1,3,0,0,1,0,519,80
1,201,2,2,0,1501,0,3,0,0,0,0,425,81
1,202,2,1,1,1501,0,3,1,0,0,1,431,82
1,203,2,2,0,1501,1,3,1,0,0,1,404,83
1,204,2,1,1,1501,0,3,1,0,0,1,334,84
1,205,2,1,1,1501,0,3,0,1,0,1,476,85
1,206,2,2,0,1501,0,3,0,1,1,1,586,86
1,207,2,2,0,1501,1,3,0,0,1,0,313,87
1,208,2,2,0,1501,0,3,0,1,0,1,445,88
1,209,2,1,1,1501,0,3,0,0,1,0,427,89
1,210,2,2,0,1502,1,3,0,0,0,0,426,90
1,211,2,1,1,1501,1,3,0,0,0,0,447,91
1,212,2,1,1,1501,1,3,1,0,0,1,560,92
1,213,2,2,0,1503,0,3,0,1,0,1,524,93
1,214,2,1,1,1502,1,3,0,0,1,0,441,94
1,215,2,1,1,1501,0,3,1,0,0,1,533,95
1,216,2,1,1,1501,0,3,0,1,0,1,503,96
1,217,2,2,0,1501,1,3,0,0,1,0,368,97
1,218,2,1,1,1501,0,3,1,0,0,1,422,98
1,219,2,2,0,1501,0,3,0,0,0,0,426,99
1,220,2,2,0,1502,1,3,1,0,0,1,352,100
1,221,2,1,1,1501,1,3,0,0,0,0,392,101
1,222,2,1,1,1501,0,3,1,0,0,1,392,102
1,223,2,1,1,1501,0,3,1,0,0,1,485,103
1,224,2,2,0,1501,0,3,0,1,0,1,438,104
1,225,2,2,0,1502,0,3,1,0,1,1,419,105
1,226,2,2,0,1501,1,3,1,0,0,1,263,106
1,227,2,2,0,1501,0,3,1,0,0,1,460,107
1,228,2,1,1,1502,1,3,0,1,0,1,735,108
1,229,2,1,1,1501,1,3,1,0,1,1,607,109
1,230,2,1,1,1501,0,3,1,0,0,1,449,110
1,231,2,1,1,1501,0,3,1,0,0,1,500,111
1,232,2,1,1,1502,1,3,0,1,0,1,587,112
1,233,2,2,0,1501,1,3,0,1,1,1,530,113
1,234,2,2,0,1501,1,3,0,1,1,1,402,114
1,235,2,1,1,1501,0,3,0,1,1,1,456,115
1,236,2,2,0,1501,1,3,0,0,1,0,212,116
1,237,2,2,0,1501,0,3,0,0,0,0,351,117
1,238,2,1,1,1501,1,3,0,1,0,1,370,118
1,239,2,2,0,1503,1,3,0,0,1,0,330,119
1,240,2,2,0,1501,1,3,1,0,0,1,600,120
1,241,3,1,1,1502,0,2,1,0,0,1,528,1
1,242,3,1,1,1501,1,2,1,0,0,1,370,2
1,243,3,1,1,1501,1,2,0,1,0,1,420,3
1,244,3,1,1,1501,1,2,0,0,1,0,488,4
1,245,3,1,1,1501,1,2,0,1,0,1,429,5
1,246,3,2,0,1501,0,2,1,0,1,1,291,6
1,247,3,1,1,1501,1,2,1,0,0,1,600,7
1,248,3,2,0,1503,0,2,0,1,0,1,368,8
1,249,3,1,1,1501,1,2,1,0,1,1,464,9
1,250,3,2,0,1501,1,2,1,0,0,1,428,10
1,251,3,2,0,1501,1,2,0,1,0,1,372,11
1,252,3,2,0,1501,0,2,0,1,1,1,386,12
1,253,3,2,0,1501,0,2,0,1,1,1,361,13
1,254,3,1,1,1501,0,2,1,0,1,1,469,14
1,255,3,2,0,1501,1,2,1,0,0,1,527,15
1,256,3,2,0,1501,0,2,0,1,0,1,408,16
1,257,3,1,1,1502,0,2,0,0,1,0,357,17
1,258,3,2,0,1502,1,2,1,0,0,1,458,18
1,259,3,1,1,1502,1,2,0,1,0,1,494,19
1,260,3,1,1,1501,0,2,1,0,1,1,548,20
1,261,3,1,1,1502,1,2,0,1,0,1,497,21
1,262,3,2,0,1501,1,2,1,0,1,1,394,22
1,263,3,1,1,1502,1,2,0,1,0,1,493,23
1,264,3,1,1,1501,0,2,0,0,1,0,415,24
1,265,3,1,1,1502,0,2,1,0,0,1,501,25
1,266,3,2,0,1501,1,2,0,0,0,0,533,26
1,267,3,1,1,1501,0,2,1,0,0,1,583,27
1,268,3,2,0,1501,0,2,1,0,0,1,598,28
1,269,3,1,1,1502,0,2,1,0,0,1,396,29
1,270,3,2,0,1501,1,2,1,0,0,1,319,30
1,271,3,2,0,1501,0,2,1,0,0,1,419,31
1,272,3,1,1,1501,0,2,1,0,0,1,474,32
1,273,3,2,0,1501,1,2,0,1,0,1,483,33
1,274,3,2,0,1501,1,2,0,1,1,1,437,34
1,275,3,1,1,1501,0,2,1,0,1,1,424,35
1,276,3,2,0,1502,1,2,1,0,0,1,408,36
1,277,3,2,0,1501,1,2,0,0,0,0,661,37
1,278,3,2,0,1501,0,2,1,0,0,1,453,38
1,279,3,2,0,1502,0,2,1,0,0,1,362,39
1,280,3,1,1,1501,1,2,1,0,0,1,291,40
1,281,3,2,0,1501,0,2,0,1,0,1,440,41
1,282,3,1,1,1501,1,2,1,0,1,1,443,42
1,283,3,1,1,1501,1,2,0,0,0,0,447,43
1,284,3,2,0,1501,1,2,1,0,0,1,800,44
1,285,3,1,1,1501,1,2,1,0,0,1,495,45
1,286,3,1,1,1501,1,2,1,0,0,1,495,46
1,287,3,1,1,1501,0,2,1,0,0,1,283,47
1,288,3,1,1,1501,1,2,1,0,0,1,467,48
1,289,3,2,0,1501,0,2,0,1,0,1,461,49
1,290,3,2,0,1502,0,2,1,0,1,1,454,50
1,291,3,2,0,1501,1,2,1,0,0,1,474,51
1,292,3,1,1,1501,0,2,1,0,0,1,435,52
1,293,3,2,0,1501,1,2,1,0,0,1,409,53
1,294,3,2,0,1501,0,2,1,0,0,1,369,54
1,295,3,2,0,1502,0,2,0,0,0,0,445,55
1,296,3,1,1,1502,0,2,0,1,0,1,465,56
1,297,3,1,1,1501,1,2,1,0,1,1,371,57
1,298,3,1,1,1502,1,2,0,0,0,0,617,58
1,299,3,1,1,1501,1,2,0,1,0,1,332,59
1,300,3,1,1,1502,0,2,0,1,1,1,390,60
1,301,3,1,1,1501,1,2,0,1,1,1,541,61
1,302,3,2,0,1501,1,2,1,0,1,1,462,62
1,303,3,2,0,1501,1,2,1,0,0,1,498,63
1,304,3,2,0,1502,1,2,0,0,0,0,517,64
1,305,3,1,1,1501,1,2,1,0,0,1,480,65
1,306,3,1,1,1501,0,2,1,0,0,1,420,66
1,307,3,2,0,1501,1,2,0,1,0,1,628,67
1,308,3,2,0,1502,0,2,1,0,1,1,348,68
1,309,3,2,0,1502,0,2,0,0,0,0,452,69
1,310,3,2,0,1501,1,2,1,0,0,1,580,70
1,311,3,1,1,1501,1,2,0,1,0,1,449,71
1,312,3,1,1,1501,0,2,1,0,1,1,445,72
1,313,3,1,1,1501,1,2,0,1,0,1,674,73
1,314,3,2,0,1501,1,2,0,1,1,1,483,74
1,315,3,1,1,1501,1,2,1,0,1,1,390,75
1,316,3,1,1,1502,0,2,1,0,0,1,411,76
1,317,3,2,0,1501,1,2,0,0,0,0,430,77
1,318,3,2,0,1501,1,2,0,0,0,0,514,78
1,319,3,2,0,1502,0,2,1,0,0,1,481,79
1,320,3,1,1,1501,0,2,0,0,0,0,565,80
1,321,3,2,0,1501,1,2,1,0,0,1,342,81
1,322,3,1,1,1501,1,2,0,0,0,0,455,82
1,323,3,1,1,1502,0,2,0,1,0,1,707,83
1,324,3,1,1,1501,0,2,1,0,1,1,492,84
1,325,3,2,0,1501,1,2,0,1,0,1,582,85
1,326,3,2,0,1502,0,2,0,1,1,1,573,86
1,327,3,2,0,1501,0,2,1,0,1,1,513,87
1,328,3,2,0,1501,0,2,1,0,0,1,412,88
1,329,3,2,0,1502,0,2,0,1,0,1,593,89
1,330,3,2,0,1501,0,2,0,1,1,1,810,90
1,331,3,2,0,1501,1,2,0,1,1,1,452,91
1,332,3,1,1,1501,1,2,1,0,1,1,407,92
1,333,3,1,1,1501,0,2,1,0,0,1,375,93
1,334,3,1,1,1501,1,2,1,0,0,1,510,94
1,335,3,1,1,1501,1,2,0,0,0,0,480,95
1,336,3,1,1,1502,1,2,0,1,0,1,454,96
1,337,3,1,1,1502,0,2,0,1,1,1,507,97
1,338,3,2,0,1502,0,2,0,1,1,1,566,98
1,339,3,2,0,1501,1,2,1,0,1,1,433,99
1,340,3,1,1,1501,0,2,0,1,0,1,416,100
1,341,3,2,0,1501,1,2,1,0,1,1,388,101
1,342,3,2,0,1502,0,2,1,0,0,1,423,102
1,343,3,2,0,1501,1,2,1,0,0,1,585,103
1,344,3,2,0,1502,1,2,0,0,0,0,398,104
1,345,3,2,0,1501,0,2,0,0,0,0,683,105
1,346,3,2,0,1501,1,2,0,0,0,0,599,106
1,347,3,1,1,1502,0,2,1,0,0,1,513,107
1,348,3,2,0,1501,0,2,0,0,0,0,389,108
1,349,3,1,1,1501,0,2,1,0,0,1,610,109
1,350,3,1,1,1502,0,2,1,0,0,1,484,110
1,351,3,1,1,1502,1,2,0,1,0,1,448,111
1,352,3,2,0,1502,0,2,0,0,1,0,465,112
1,353,3,2,0,1502,1,2,0,0,0,0,771,113
1,354,3,2,0,1501,0,2,0,1,0,1,626,114
1,355,3,2,0,1501,1,2,0,1,1,1,572,115
1,356,3,2,0,1501,0,2,0,1,1,1,499,116
1,357,3,1,1,1501,1,2,1,0,1,1,765,117
1,358,3,1,1,1501,0,2,0,1,0,1,764,118
1,359,3,1,1,1501,0,2,1,0,1,1,662,119
1,360,3,2,0,1501,0,2,0,1,0,1,572,120
1,361,4,1,1,1502,0,1,1,0,0,1,734,1
1,362,4,1,1,1501,1,1,1,0,0,1,454,2
1,363,4,2,0,1501,1,1,1,0,0,1,478,3
1,364,4,1,1,1501,1,1,1,0,0,1,446,4
1,365,4,2,0,1501,1,1,1,0,0,1,408,5
1,366,4,1,1,1501,1,1,1,0,0,1,483,6
1,367,4,1,1,1502,1,1,1,0,0,1,413,7
1,368,4,2,0,1501,1,1,1,0,0,1,438,8
1,369,4,1,1,1502,0,1,1,0,0,1,454,9
1,370,4,2,0,1501,1,1,1,0,0,1,586,10
1,371,4,1,1,1501,1,1,1,0,0,1,585,11
1,372,4,2,0,1502,1,1,1,0,0,1,550,12
1,373,4,2,0,1501,0,1,1,0,0,1,451,13
1,374,4,1,1,1501,0,1,0,0,0,0,581,14
1,375,4,1,1,1501,1,1,1,0,0,1,659,15
1,376,4,1,1,1501,1,1,1,0,0,1,472,16
1,377,4,2,0,1501,1,1,1,0,0,1,743,17
1,378,4,1,1,1501,0,1,1,0,0,1,389,18
1,379,4,2,0,1501,0,1,1,0,0,1,545,19
1,380,4,2,0,1502,0,1,1,0,0,1,499,20
1,381,4,1,1,1502,0,1,1,0,0,1,584,21
1,382,4,1,1,1501,1,1,0,0,0,0,757,22
1,383,4,2,0,1501,1,1,1,0,0,1,506,23
1,384,4,2,0,1501,0,1,1,0,0,1,635,24
1,385,4,2,0,1501,0,1,1,0,0,1,893,25
1,386,4,1,1,1501,0,1,1,0,0,1,570,26
1,387,4,2,0,1501,1,1,1,0,0,1,412,27
1,388,4,1,1,1501,1,1,1,0,0,1,589,28
1,389,4,1,1,1501,1,1,1,0,0,1,793,29
1,390,4,2,0,1501,1,1,1,0,0,1,483,30
1,391,4,1,1,1502,0,1,1,0,0,1,364,31
1,392,4,1,1,1502,0,1,1,0,0,1,525,32
1,393,4,1,1,1501,1,1,1,0,0,1,399,33
1,394,4,2,0,1501,0,1,1,0,0,1,566,34
1,395,4,1,1,1502,1,1,1,0,0,1,545,35
1,396,4,1,1,1501,0,1,1,0,0,1,541,36
1,397,4,2,0,1501,1,1,1,0,0,1,906,37
1,398,4,1,1,1502,1,1,0,0,0,0,547,38
1,399,4,2,0,1501,1,1,1,0,0,1,711,39
1,400,4,1,1,1501,1,1,1,0,0,1,697,40
1,401,4,1,1,1501,0,1,1,0,0,1,640,41
1,402,4,1,1,1502,1,1,1,0,0,1,632,42
1,403,4,2,0,1501,0,1,1,0,0,1,450,43
1,404,4,2,0,1501,1,1,1,0,0,1,571,44
1,405,4,2,0,1502,1,1,1,0,0,1,525,45
1,406,4,1,1,1502,0,1,1,0,0,1,500,46
1,407,4,1,1,1501,1,1,1,0,0,1,626,47
1,408,4,2,0,1501,1,1,1,0,0,1,657,48
1,409,4,2,0,1501,1,1,1,0,0,1,454,49
1,410,4,1,1,1502,1,1,1,0,0,1,550,50
1,411,4,2,0,1501,1,1,1,0,0,1,576,51
1,412,4,1,1,1501,0,1,1,0,0,1,391,52
1,413,4,1,1,1502,0,1,1,0,0,1,558,53
1,414,4,1,1,1502,1,1,1,0,0,1,457,54
1,415,4,2,0,1501,1,1,1,0,0,1,699,55
1,416,4,2,0,1501,0,1,1,0,0,1,514,56
1,417,4,2,0,1501,1,1,1,0,0,1,669,57
1,418,4,2,0,1501,0,1,1,0,0,1,480,58
1,419,4,1,1,1501,0,1,1,0,0,1,567,59
1,420,4,1,1,1501,1,1,1,0,0,1,543,60
1,421,4,2,0,1501,0,1,1,0,0,1,739,61
1,422,4,2,0,1502,1,1,1,0,0,1,493,62
1,423,4,1,1,1502,0,1,1,0,0,1,451,63
1,424,4,1,1,1501,0,1,1,0,0,1,625,64
1,425,4,1,1,1501,1,1,1,0,0,1,590,65
1,426,4,2,0,1501,0,1,1,0,0,1,612,66
1,427,4,1,1,1501,1,1,1,0,0,1,674,67
1,428,4,1,1,1501,1,1,1,0,0,1,539,68
1,429,4,2,0,1501,0,1,1,0,0,1,603,69
1,430,4,1,1,1502,1,1,1,0,0,1,529,70
1,431,4,2,0,1501,0,1,0,0,0,0,490,71
1,432,4,1,1,1501,0,1,1,0,0,1,409,72
1,433,4,1,1,1501,1,1,1,0,0,1,415,73
1,434,4,2,0,1502,1,1,1,0,0,1,652,74
1,435,4,2,0,1501,1,1,0,0,0,0,543,75
1,436,4,1,1,1501,0,1,1,0,0,1,536,76
1,437,4,2,0,1502,1,1,1,0,0,1,455,77
1,438,4,1,1,1502,0,1,1,0,0,1,545,78
1,439,4,1,1,1501,0,1,1,0,0,1,591,79
1,440,4,2,0,1501,1,1,0,0,0,0,723,80
1,441,4,2,0,1501,1,1,0,0,0,0,668,81
1,442,4,2,0,1502,1,1,1,0,0,1,503,82
1,443,4,1,1,1501,0,1,1,0,0,1,396,83
1,444,4,2,0,1501,0,1,1,0,0,1,701,84
1,445,4,1,1,1501,0,1,1,0,0,1,543,85
1,446,4,1,1,1501,0,1,1,0,0,1,560,86
1,447,4,1,1,1501,1,1,1,0,0,1,451,87
1,448,4,2,0,1501,1,1,1,0,0,1,507,88
1,449,4,2,0,1501,0,1,1,0,0,1,529,89
1,450,4,1,1,1502,1,1,1,0,0,1,573,90
1,451,4,1,1,1501,0,1,1,0,0,1,463,91
1,452,4,1,1,1501,1,1,1,0,0,1,513,92
1,453,4,1,1,1501,0,1,1,0,0,1,555,93
1,454,4,2,0,1501,0,1,1,0,0,1,836,94
1,455,4,2,0,1502,0,1,1,0,0,1,677,95
1,456,4,2,0,1501,0,1,1,0,0,1,533,96
1,457,4,2,0,1501,1,1,1,0,0,1,797,97
1,458,4,2,0,1501,1,1,1,0,0,1,511,98
1,459,4,1,1,1501,1,1,1,0,0,1,938,99
1,460,4,2,0,1501,1,1,0,0,0,0,676,100
1,461,4,2,0,1502,1,1,1,0,0,1,598,101
1,462,4,1,1,1502,0,1,1,0,0,1,796,102
1,463,4,1,1,1501,1,1,1,0,0,1,533,103
1,464,4,2,0,1501,1,1,1,0,0,1,500,104
1,465,4,1,1,1502,1,1,1,0,0,1,554,105
1,466,4,1,1,1502,1,1,1,0,0,1,714,106
1,467,4,2,0,1501,1,1,0,0,0,0,798,107
1,468,4,2,0,1501,0,1,1,0,0,1,573,108
1,469,4,2,0,1501,1,1,0,0,0,0,575,109
1,470,4,2,0,1501,0,1,1,0,0,1,772,110
1,471,4,2,0,1501,0,1,1,0,0,1,516,111
1,472,4,1,1,1501,0,1,1,0,0,1,725,112
1,473,4,2,0,1501,1,1,1,0,0,1,560,113
1,474,4,1,1,1501,1,1,1,0,0,1,545,114
1,475,4,1,1,1502,0,1,1,0,0,1,516,115
1,476,4,1,1,1501,1,1,1,0,0,1,677,116
1,477,4,1,1,1502,0,1,1,0,0,1,708,117
1,478,4,2,0,1501,0,1,0,0,0,0,655,118
1,479,4,1,1,1501,0,1,1,0,0,1,521,119
1,480,4,1,1,1501,1,1,1,0,0,1,711,120
1,481,5,2,0,1501,1,3,1,0,0,1,639,1
1,482,5,2,0,1501,0,3,1,0,0,1,443,2
1,483,5,1,1,1503,0,3,1,0,0,1,585,3
1,484,5,2,0,1502,0,3,1,0,0,1,480,4
1,485,5,1,1,1501,1,3,1,0,0,1,564,5
1,486,5,2,0,1501,0,3,1,0,0,1,769,6
1,487,5,1,1,1501,0,3,1,0,0,1,651,7
1,488,5,1,1,1501,0,3,0,1,0,1,538,8
1,489,5,1,1,1501,0,3,1,0,1,1,469,9
1,490,5,2,0,1501,1,3,1,0,0,1,612,10
1,491,5,2,0,1501,0,3,1,0,0,1,723,11
1,492,5,1,1,1501,0,3,0,1,0,1,559,12
1,493,5,2,0,1502,0,3,1,0,1,1,531,13
1,494,5,1,1,1502,0,3,0,1,0,1,657,14
1,495,5,2,0,1501,1,3,0,1,1,1,635,15
1,496,5,2,0,1501,1,3,1,0,1,1,621,16
1,497,5,2,0,1501,1,3,0,1,0,1,456,17
1,498,5,2,0,1501,0,3,0,0,1,0,582,18
1,499,5,2,0,1501,0,3,0,1,0,1,505,19
1,500,5,1,1,1501,0,3,0,1,1,1,483,20
1,501,5,1,1,1502,1,3,0,1,1,1,783,21
1,502,5,2,0,1503,0,3,0,1,1,1,640,22
1,503,5,2,0,1502,1,3,1,0,1,1,606,23
1,504,5,2,0,1501,1,3,1,0,0,1,594,24
1,505,5,1,1,1501,0,3,1,0,0,1,402,25
1,506,5,1,1,1501,1,3,1,0,0,1,516,26
1,507,5,2,0,1501,1,3,1,0,0,1,782,27
1,508,5,2,0,1501,1,3,0,0,0,0,691,28
1,509,5,2,0,1501,0,3,1,0,0,1,519,29
1,510,5,1,1,1502,1,3,1,0,0,1,541,30
1,511,5,2,0,1502,1,3,1,0,0,1,616,31
1,512,5,2,0,1503,1,3,0,0,0,0,675,32
1,513,5,1,1,1501,1,3,0,1,0,1,563,33
1,514,5,1,1,1501,1,3,0,1,1,1,486,34
1,515,5,1,1,1501,0,3,1,0,1,1,502,35
1,516,5,1,1,1501,0,3,1,0,0,1,518,36
1,517,5,1,1,1501,0,3,0,1,0,1,536,37
1,518,5,1,1,1502,1,3,1,0,1,1,699,38
1,519,5,2,0,1501,0,3,1,0,0,1,682,39
1,520,5,1,1,1501,0,3,0,0,0,0,722,40
1,521,5,1,1,1501,0,3,0,1,0,1,735,41
1,522,5,2,0,1501,0,3,0,1,1,1,609,42
1,523,5,1,1,1501,0,3,0,0,1,0,505,43
1,524,5,1,1,1502,1,3,0,1,0,1,632,44
1,525,5,2,0,1501,1,3,0,0,1,0,550,45
1,526,5,1,1,1501,1,3,1,0,0,1,778,46
1,527,5,1,1,1503,1,3,1,0,0,1,560,47
1,528,5,1,1,1501,0,3,0,1,0,1,640,48
1,529,5,1,1,1501,1,3,0,1,1,1,585,49
1,530,5,1,1,1501,0,3,1,0,1,1,521,50
1,531,5,2,0,1501,0,3,1,0,0,1,724,51
1,532,5,1,1,1502,0,3,1,0,0,1,665,52
1,533,5,2,0,1501,0,3,1,0,0,1,511,53
1,534,5,2,0,1501,1,3,1,0,0,1,627,54
1,535,5,1,1,1503,1,3,1,0,0,1,567,55
1,536,5,1,1,1501,0,3,1,0,0,1,569,56
1,537,5,1,1,1501,0,3,1,0,0,1,521,57
1,538,5,2,0,1501,0,3,0,1,0,1,467,58
1,539,5,1,1,1501,1,3,0,0,1,0,534,59
1,540,5,2,0,1502,1,3,1,0,0,1,531,60
1,541,5,2,0,1502,1,3,1,0,0,1,601,61
1,542,5,1,1,1501,1,3,1,0,0,1,484,62
1,543,5,1,1,1501,0,3,1,0,0,1,502,63
1,544,5,2,0,1502,1,3,0,0,0,0,500,64
1,545,5,2,0,1501,0,3,0,0,0,0,491,65
1,546,5,1,1,1503,1,3,0,1,0,1,504,66
1,547,5,2,0,1501,0,3,1,0,1,1,697,67
1,548,5,2,0,1502,1,3,0,1,0,1,614,68
1,549,5,2,0,1501,0,3,1,0,1,1,634,69
1,550,5,1,1,1501,1,3,0,0,0,0,542,70
1,551,5,2,0,1501,1,3,0,1,0,1,956,71
1,552,5,2,0,1501,0,3,0,1,1,1,546,72
1,553,5,2,0,1502,1,3,0,0,1,0,710,73
1,554,5,1,1,1501,0,3,0,1,0,1,584,74
1,555,5,2,0,1502,1,3,0,0,1,0,710,75
1,556,5,2,0,1502,1,3,1,0,0,1,546,76
1,557,5,1,1,1501,1,3,1,0,0,1,588,77
1,558,5,2,0,1501,0,3,1,0,0,1,691,78
1,559,5,2,0,1501,1,3,1,0,0,1,511,79
1,560,5,1,1,1501,0,3,1,0,0,1,499,80
1,561,5,2,0,1502,0,3,0,1,0,1,607,81
1,562,5,2,0,1501,0,3,1,0,1,1,684,82
1,563,5,1,1,1502,1,3,1,0,0,1,754,83
1,564,5,2,0,1501,0,3,1,0,0,1,693,84
1,565,5,1,1,1501,1,3,0,1,0,1,481,85
1,566,5,1,1,1501,1,3,0,0,1,0,863,86
1,567,5,1,1,1501,0,3,1,0,0,1,531,87
1,568,5,1,1,1502,0,3,0,0,0,0,640,88
1,569,5,2,0,1501,0,3,1,0,0,1,835,89
1,570,5,1,1,1501,0,3,1,0,0,1,533,90
1,571,5,1,1,1501,0,3,1,0,0,1,444,91
1,572,5,1,1,1502,1,3,1,0,0,1,422,92
1,573,5,2,0,1501,0,3,0,1,0,1,506,93
1,574,5,2,0,1501,0,3,0,1,1,1,498,94
1,575,5,2,0,1501,1,3,0,0,1,0,393,95
1,576,5,1,1,1501,1,3,0,1,0,1,437,96
1,577,5,2,0,1501,0,3,0,0,1,0,500,97
1,578,5,2,0,1501,1,3,1,0,0,1,570,98
1,579,5,1,1,1501,0,3,0,1,0,1,705,99
1,580,5,1,1,1501,1,3,0,1,1,1,588,100
1,581,5,2,0,1501,1,3,1,0,1,1,869,101
1,582,5,1,1,1501,0,3,1,0,0,1,477,102
1,583,5,1,1,1501,0,3,1,0,0,1,496,103
1,584,5,1,1,1502,1,3,1,0,0,1,537,104
1,585,5,1,1,1501,1,3,1,0,0,1,670,105
1,586,5,2,0,1501,0,3,0,1,0,1,697,106
1,587,5,2,0,1501,0,3,1,0,1,1,571,107
1,588,5,1,1,1501,0,3,0,0,0,0,560,108
1,589,5,2,0,1501,1,3,0,1,0,1,516,109
1,590,5,1,1,1501,1,3,0,0,1,0,731,110
1,591,5,2,0,1501,0,3,0,1,0,1,696,111
1,592,5,2,0,1501,0,3,1,0,1,1,599,112
1,593,5,2,0,1502,1,3,0,1,0,1,598,113
1,594,5,1,1,1502,1,3,0,0,1,0,803,114
1,595,5,2,0,1501,1,3,1,0,0,1,465,115
1,596,5,2,0,1501,1,3,1,0,0,1,760,116
1,597,5,1,1,1501,1,3,1,0,0,1,550,117
1,598,5,1,1,1501,0,3,1,0,0,1,610,118
1,599,5,1,1,1501,0,3,0,0,0,0,764,119
1,600,5,2,0,1501,0,3,1,0,0,1,511,120
1,601,6,2,0,1502,0,2,1,0,0,1,478,1
1,602,6,2,0,1502,1,2,0,1,0,1,515,2
1,603,6,2,0,1501,1,2,0,0,1,0,475,3
1,604,6,2,0,1502,1,2,1,0,0,1,696,4
1,605,6,1,1,1501,1,2,1,0,0,1,571,5
1,606,6,1,1,1501,0,2,1,0,0,1,428,6
1,607,6,1,1,1501,1,2,0,1,0,1,665,7
1,608,6,2,0,1502,0,2,1,0,1,1,606,8
1,609,6,1,1,1501,0,2,0,0,0,0,756,9
1,610,6,1,1,1501,1,2,0,1,0,1,749,10
1,611,6,1,1,1502,1,2,1,0,1,1,831,11
1,612,6,2,0,1502,0,2,1,0,0,1,505,12
1,613,6,2,0,1501,1,2,0,0,0,0,530,13
1,614,6,1,1,1501,1,2,0,1,0,1,670,14
1,615,6,2,0,1501,1,2,0,0,1,0,832,15
1,616,6,2,0,1501,1,2,1,0,0,1,675,16
1,617,6,1,1,1502,1,2,1,0,0,1,511,17
1,618,6,2,0,1502,1,2,1,0,0,1,506,18
1,619,6,1,1,1502,1,2,1,0,0,1,958,19
1,620,6,1,1,1502,0,2,1,0,0,1,626,20
1,621,6,1,1,1501,1,2,1,0,0,1,710,21
1,622,6,1,1,1501,0,2,1,0,0,1,537,22
1,623,6,1,1,1501,0,2,1,0,0,1,945,23
1,624,6,1,1,1501,0,2,0,1,0,1,907,24
1,625,6,1,1,1502,0,2,0,1,1,1,576,25
1,626,6,2,0,1501,1,2,0,1,1,1,524,26
1,627,6,2,0,1502,1,2,1,0,1,1,650,27
1,628,6,2,0,1501,0,2,1,0,0,1,399,28
1,629,6,1,1,1501,0,2,0,0,0,0,486,29
1,630,6,1,1,1501,1,2,1,0,0,1,507,30
1,631,6,2,0,1501,0,2,0,1,0,1,690,31
1,632,6,2,0,1502,0,2,1,0,1,1,530,32
1,633,6,2,0,1501,0,2,1,0,0,1,518,33
1,634,6,2,0,1502,0,2,0,1,0,1,475,34
1,635,6,1,1,1501,0,2,0,1,1,1,653,35
1,636,6,2,0,1501,1,2,1,0,1,1,439,36
1,637,6,1,1,1501,1,2,1,0,0,1,517,37
1,638,6,2,0,1501,0,2,1,0,0,1,554,38
1,639,6,1,1,1501,1,2,1,0,0,1,526,39
1,640,6,1,1,1501,0,2,0,1,0,1,633,40
1,641,6,2,0,1501,1,2,1,0,1,1,850,41
1,642,6,2,0,1501,0,2,0,1,0,1,367,42
1,643,6,1,1,1501,1,2,1,0,1,1,384,43
1,644,6,1,1,1502,1,2,1,0,0,1,517,44
1,645,6,1,1,1501,1,2,1,0,0,1,350,45
1,646,6,2,0,1501,0,2,1,0,0,1,439,46
1,647,6,1,1,1501,1,2,1,0,0,1,838,47
1,648,6,2,0,1501,1,2,1,0,0,1,460,48
1,649,6,2,0,1501,0,2,0,1,0,1,470,49
1,650,6,1,1,1501,1,2,0,1,1,1,578,50
1,651,6,2,0,1501,1,2,1,0,1,1,495,51
1,652,6,2,0,1501,1,2,1,0,0,1,601,52
1,653,6,1,1,1501,1,2,1,0,0,1,535,53
1,654,6,1,1,1501,0,2,1,0,0,1,578,54
1,655,6,1,1,1501,0,2,1,0,0,1,955,55
1,656,6,2,0,1501,0,2,0,1,0,1,528,56
1,657,6,1,1,1501,0,2,0,0,1,0,670,57
1,658,6,1,1,1501,1,2,1,0,0,1,575,58
1,659,6,1,1,1501,1,2,0,1,0,1,524,59
1,660,6,2,0,1501,1,2,1,0,1,1,795,60
1,661,6,1,1,1501,0,2,1,0,0,1,981,61
1,662,6,1,1,1502,1,2,0,0,0,0,634,62
1,663,6,1,1,1501,1,2,1,0,0,1,445,63
1,664,6,2,0,1501,0,2,1,0,0,1,877,64
1,665,6,2,0,1501,1,2,1,0,0,1,522,65
1,666,6,1,1,1502,1,2,1,0,0,1,528,66
1,667,6,2,0,1501,1,2,0,0,0,0,943,67
1,668,6,2,0,1501,0,2,1,0,0,1,613,68
1,669,6,2,0,1501,1,2,0,0,0,0,480,69
1,670,6,1,1,1501,1,2,0,1,0,1,509,70
1,671,6,1,1,1501,1,2,1,0,1,1,584,71
1,672,6,2,0,1501,1,2,1,0,0,1,958,72
1,673,6,2,0,1501,0,2,1,0,0,1,467,73
1,674,6,2,0,1501,0,2,1,0,0,1,648,74
1,675,6,1,1,1502,0,2,1,0,0,1,614,75
1,676,6,1,1,1501,0,2,1,0,0,1,456,76
1,677,6,1,1,1501,1,2,1,0,0,1,553,77
1,678,6,1,1,1502,1,2,0,1,0,1,508,78
1,679,6,1,1,1501,0,2,1,0,1,1,641,79
1,680,6,2,0,1501,0,2,0,0,0,0,824,80
1,681,6,2,0,1501,0,2,1,0,0,1,539,81
1,682,6,2,0,1501,0,2,1,0,0,1,534,82
1,683,6,1,1,1502,1,2,1,0,0,1,584,83
1,684,6,1,1,1501,1,2,0,0,0,0,689,84
1,685,6,2,0,1501,0,2,0,1,0,1,650,85
1,686,6,2,0,1502,0,2,2,0,1,0,1012,86
1,687,6,1,1,1501,1,2,1,0,0,1,631,87
1,688,6,1,1,1501,1,2,1,0,0,1,615,88
1,689,6,2,0,1501,0,2,0,1,0,1,871,89
1,690,6,1,1,1501,0,2,2,0,1,0,1011,90
1,691,6,1,1,1502,1,2,1,0,0,1,789,91
1,692,6,1,1,1502,0,2,1,0,0,1,560,92
1,693,6,2,0,1501,0,2,0,1,0,1,651,93
1,694,6,2,0,1502,1,2,1,0,1,1,688,94
1,695,6,1,1,1501,1,2,1,0,0,1,571,95
1,696,6,2,0,1502,0,2,1,0,0,1,575,96
1,697,6,2,0,1501,1,2,0,0,0,0,509,97
1,698,6,1,1,1501,0,2,0,0,0,0,513,98
1,699,6,2,0,1502,1,2,2,0,0,0,1011,99
1,700,6,1,1,1502,1,2,1,0,0,1,613,100
1,701,6,1,1,1501,1,2,0,1,0,1,737,101
1,702,6,2,0,1501,0,2,0,1,1,1,469,102
1,703,6,1,1,1501,0,2,1,0,1,1,667,103
1,704,6,1,1,1501,1,2,0,1,0,1,564,104
1,705,6,2,0,1501,1,2,0,0,1,0,888,105
1,706,6,1,1,1501,1,2,0,1,0,1,616,106
1,707,6,2,0,1502,0,2,1,0,1,1,737,107
1,708,6,2,0,1501,1,2,1,0,0,1,496,108
1,709,6,2,0,1502,0,2,0,1,0,1,560,109
1,710,6,1,1,1501,1,2,1,0,1,1,574,110
1,711,6,1,1,1501,1,2,1,0,0,1,679,111
1,712,6,2,0,1501,1,2,1,0,0,1,504,112
1,713,6,2,0,1502,1,2,0,1,0,1,669,113
1,714,6,1,1,1502,1,2,1,0,1,1,500,114
1,715,6,2,0,1502,1,2,2,0,0,0,1012,115
1,716,6,1,1,1502,0,2,0,0,0,0,597,116
1,717,6,1,1,1501,0,2,0,1,0,1,980,117
1,718,6,2,0,1501,0,2,0,1,1,1,628,118
1,719,6,1,1,1502,1,2,0,1,1,1,744,119
1,720,6,2,0,1501,1,2,0,1,1,1,657,120
1,721,7,1,1,1501,1,3,0,1,0,1,519,1
1,722,7,1,1,1502,0,3,1,0,1,1,681,2
1,723,7,2,0,1501,0,3,1,0,0,1,926,3
1,724,7,2,0,1501,0,3,0,0,0,0,666,4
1,725,7,1,1,1501,0,3,0,1,0,1,672,5
1,726,7,2,0,1501,0,3,1,0,1,1,642,6
1,727,7,2,0,1501,0,3,1,0,0,1,499,7
1,728,7,1,1,1502,0,3,1,0,0,1,518,8
1,729,7,2,0,1501,1,3,0,1,0,1,524,9
1,730,7,1,1,1501,0,3,0,1,1,1,860,10
1,731,7,2,0,1501,0,3,2,0,1,0,1011,11
1,732,7,1,1,1501,1,3,0,0,0,0,703,12
1,733,7,2,0,1501,0,3,0,1,0,1,710,13
1,734,7,2,0,1502,1,3,1,0,1,1,535,14
1,735,7,1,1,1502,0,3,0,1,0,1,530,15
1,736,7,2,0,1501,0,3,0,0,1,0,676,16
1,737,7,2,0,1501,1,3,0,1,0,1,675,17
1,738,7,2,0,1501,0,3,0,1,1,1,580,18
1,739,7,1,1,1501,1,3,1,0,1,1,598,19
1,740,7,1,1,1501,1,3,1,0,0,1,440,20
1,741,7,2,0,1501,0,3,1,0,0,1,571,21
1,742,7,2,0,1501,1,3,0,1,0,1,675,22
1,743,7,2,0,1501,1,3,0,1,1,1,953,23
1,744,7,1,1,1501,0,3,0,1,1,1,616,24
1,745,7,2,0,1501,0,3,0,1,1,1,514,25
1,746,7,2,0,1501,0,3,1,0,1,1,584,26
1,747,7,2,0,1501,1,3,0,1,0,1,387,27
1,748,7,2,0,1502,1,3,0,1,1,1,424,28
1,749,7,1,1,1503,1,3,0,1,1,1,577,29
1,750,7,2,0,1501,1,3,0,1,1,1,502,30
1,751,7,1,1,1501,1,3,0,1,1,1,393,31
1,752,7,2,0,1503,0,3,1,0,1,1,528,32
1,753,7,2,0,1501,1,3,1,0,0,1,514,33
1,754,7,1,1,1501,0,3,1,0,0,1,569,34
1,755,7,1,1,1502,0,3,1,0,0,1,650,35
1,756,7,2,0,1501,1,3,1,0,0,1,545,36
1,757,7,2,0,1501,1,3,0,1,0,1,418,37
1,758,7,2,0,1501,0,3,0,1,1,1,575,38
1,759,7,1,1,1501,0,3,1,0,1,1,478,39
1,760,7,1,1,1501,0,3,0,1,0,1,920,40
1,761,7,2,0,1501,1,3,0,0,1,0,665,41
1,762,7,2,0,1502,1,3,1,0,0,1,849,42
1,763,7,1,1,1501,1,3,1,0,0,1,520,43
1,764,7,2,0,1501,1,3,0,1,0,1,484,44
1,765,7,2,0,1501,1,3,0,0,1,0,558,45
1,766,7,1,1,1502,1,3,1,0,0,1,958,46
1,767,7,1,1,1501,0,3,1,0,0,1,527,47
1,768,7,1,1,1501,1,3,1,0,0,1,543,48
1,769,7,2,0,1501,0,3,1,0,0,1,567,49
1,770,7,2,0,1501,0,3,0,0,0,0,405,50
1,771,7,1,1,1501,1,3,0,1,0,1,519,51
1,772,7,2,0,1501,0,3,1,0,1,1,544,52
1,773,7,2,0,1502,0,3,1,0,0,1,572,53
1,774,7,1,1,1501,1,3,0,1,0,1,453,54
1,775,7,1,1,1502,1,3,1,0,1,1,646,55
1,776,7,1,1,1501,1,3,0,1,0,1,431,56
1,777,7,1,1,1501,0,3,1,0,1,1,584,57
1,778,7,1,1,1502,1,3,0,0,0,0,511,58
1,779,7,1,1,1501,1,3,0,0,0,0,713,59
1,780,7,1,1,1501,1,3,0,1,0,1,743,60
1,781,7,1,1,1501,1,3,0,1,1,1,888,61
1,782,7,1,1,1502,0,3,1,0,1,1,498,62
1,783,7,1,1,1502,1,3,1,0,0,1,660,63
1,784,7,1,1,1502,1,3,0,1,0,1,913,64
1,785,7,2,0,1502,1,3,0,1,1,1,453,65
1,786,7,1,1,1501,1,3,0,0,1,0,743,66
1,787,7,1,1,1502,1,3,1,0,0,1,464,67
1,788,7,1,1,1501,0,3,1,0,0,1,611,68
1,789,7,2,0,1502,1,3,1,0,0,1,373,69
1,790,7,1,1,1501,0,3,0,1,0,1,405,70
1,791,7,1,1,1501,0,3,1,0,1,1,809,71
1,792,7,2,0,1501,1,3,0,0,0,0,756,72
1,793,7,1,1,1502,0,3,0,0,0,0,518,73
1,794,7,1,1,1501,1,3,1,0,0,1,704,74
1,795,7,1,1,1502,1,3,1,0,0,1,614,75
1,796,7,1,1,1502,0,3,1,0,0,1,601,76
1,797,7,1,1,1501,1,3,0,0,0,0,451,77
1,798,7,2,0,1501,0,3,1,0,0,1,523,78
1,799,7,2,0,1501,1,3,1,0,0,1,530,79
1,800,7,1,1,1502,1,3,1,0,0,1,519,80
1,801,7,2,0,1502,1,3,0,0,0,0,628,81
1,802,7,2,0,1501,1,3,1,0,0,1,498,82
1,803,7,2,0,1501,0,3,1,0,0,1,527,83
1,804,7,2,0,1502,0,3,0,0,0,0,815,84
1,805,7,1,1,1502,1,3,0,1,0,1,534,85
1,806,7,2,0,1501,1,3,1,0,1,1,680,86
1,807,7,1,1,1502,1,3,1,0,0,1,562,87
1,808,7,2,0,1501,0,3,1,0,0,1,441,88
1,809,7,2,0,1501,0,3,1,0,0,1,729,89
1,810,7,1,1,1501,0,3,1,0,0,1,569,90
1,811,7,2,0,1502,0,3,1,0,0,1,577,91
1,812,7,2,0,1502,1,3,0,1,0,1,725,92
1,813,7,1,1,1502,0,3,1,0,1,1,730,93
1,814,7,2,0,1502,0,3,1,0,0,1,433,94
1,815,7,1,1,1502,1,3,0,1,0,1,626,95
1,816,7,1,1,1501,1,3,1,0,1,1,691,96
1,817,7,2,0,1502,0,3,0,1,0,1,693,97
1,818,7,1,1,1501,1,3,0,0,1,0,573,98
1,819,7,2,0,1501,0,3,0,1,0,1,905,99
1,820,7,1,1,1501,0,3,0,0,1,0,706,100
1,821,7,2,0,1501,0,3,0,1,0,1,527,101
1,822,7,1,1,1501,0,3,0,1,1,1,830,102
1,823,7,2,0,1502,0,3,0,1,1,1,662,103
1,824,7,1,1,1501,0,3,0,1,1,1,827,104
1,825,7,1,1,1501,1,3,0,1,1,1,706,105
1,826,7,2,0,1502,0,3,1,0,1,1,600,106
1,827,7,1,1,1502,1,3,1,0,0,1,454,107
1,828,7,1,1,1501,0,3,0,1,0,1,560,108
1,829,7,2,0,1501,1,3,0,1,1,1,563,109
1,830,7,2,0,1502,0,3,1,0,1,1,805,110
1,831,7,1,1,1501,1,3,0,1,0,1,539,111
1,832,7,1,1,1501,0,3,1,0,1,1,703,112
1,833,7,2,0,1501,1,3,1,0,0,1,534,113
1,834,7,2,0,1502,1,3,0,0,0,0,563,114
1,835,7,2,0,1501,1,3,1,0,0,1,613,115
1,836,7,2,0,1502,1,3,0,1,0,1,526,116
1,837,7,1,1,1501,0,3,1,0,1,1,636,117
1,838,7,1,1,1501,0,3,1,0,0,1,608,118
1,839,7,1,1,1501,0,3,1,0,0,1,375,119
1,840,7,1,1,1502,0,3,0,1,0,1,396,120
1,841,8,1,1,1501,1,1,1,0,0,1,595,1
1,842,8,1,1,1501,0,1,1,0,0,1,413,2
1,843,8,2,0,1502,0,1,1,0,0,1,537,3
1,844,8,2,0,1501,1,1,1,0,0,1,549,4
1,845,8,1,1,1501,1,1,1,0,0,1,689,5
1,846,8,2,0,1501,1,1,0,0,0,0,414,6
1,847,8,1,1,1502,0,1,1,0,0,1,643,7
1,848,8,1,1,1501,0,1,1,0,0,1,570,8
1,849,8,2,0,1501,1,1,1,0,0,1,465,9
1,850,8,2,0,1501,0,1,1,0,0,1,510,10
1,851,8,1,1,1501,0,1,1,0,0,1,605,11
1,852,8,2,0,1502,0,1,1,0,0,1,431,12
1,853,8,1,1,1501,1,1,1,0,0,1,453,13
1,854,8,1,1,1502,1,1,1,0,0,1,552,14
1,855,8,2,0,1501,1,1,1,0,0,1,596,15
1,856,8,2,0,1501,1,1,1,0,0,1,577,16
1,857,8,2,0,1501,0,1,1,0,0,1,436,17
1,858,8,2,0,1501,1,1,1,0,0,1,580,18
1,859,8,2,0,1501,1,1,0,0,0,0,679,19
1,860,8,1,1,1502,1,1,1,0,0,1,539,20
1,861,8,1,1,1501,1,1,1,0,0,1,519,21
1,862,8,1,1,1501,0,1,1,0,0,1,538,22
1,863,8,1,1,1501,0,1,0,0,0,0,463,23
1,864,8,1,1,1501,1,1,1,0,0,1,496,24
1,865,8,2,0,1502,0,1,1,0,0,1,565,25
1,866,8,2,0,1501,0,1,1,0,0,1,582,26
1,867,8,2,0,1501,1,1,1,0,0,1,488,27
1,868,8,2,0,1502,1,1,1,0,0,1,590,28
1,869,8,1,1,1501,0,1,1,0,0,1,449,29
1,870,8,1,1,1501,1,1,1,0,0,1,521,30
1,871,8,2,0,1501,0,1,0,0,0,0,580,31
1,872,8,2,0,1501,1,1,1,0,0,1,749,32
1,873,8,2,0,1501,1,1,1,0,0,1,489,33
1,874,8,2,0,1501,0,1,1,0,0,1,518,34
1,875,8,1,1,1502,1,1,1,0,0,1,514,35
1,876,8,1,1,1501,1,1,1,0,0,1,808,36
1,877,8,2,0,1502,1,1,1,0,0,1,545,37
1,878,8,2,0,1501,0,1,1,0,0,1,534,38
1,879,8,2,0,1501,0,1,1,0,0,1,732,39
1,880,8,1,1,1501,1,1,1,0,0,1,531,40
1,881,8,1,1,1501,0,1,1,0,0,1,667,41
1,882,8,2,0,1501,1,1,1,0,0,1,591,42
1,883,8,2,0,1501,0,1,1,0,0,1,599,43
1,884,8,2,0,1501,0,1,1,0,0,1,581,44
1,885,8,1,1,1501,1,1,2,0,0,0,1012,45
1,886,8,2,0,1501,1,1,1,0,0,1,641,46
1,887,8,1,1,1502,0,1,1,0,0,1,697,47
1,888,8,1,1,1501,1,1,1,0,0,1,572,48
1,889,8,2,0,1501,0,1,1,0,0,1,550,49
1,890,8,2,0,1501,0,1,1,0,0,1,591,50
1,891,8,2,0,1501,0,1,1,0,0,1,713,51
1,892,8,2,0,1501,1,1,1,0,0,1,651,52
1,893,8,1,1,1501,1,1,1,0,0,1,686,53
1,894,8,2,0,1501,0,1,1,0,0,1,719,54
1,895,8,2,0,1501,0,1,0,0,0,0,573,55
1,896,8,1,1,1501,1,1,0,0,0,0,943,56
1,897,8,1,1,1501,0,1,1,0,0,1,624,57
1,898,8,2,0,1502,1,1,1,0,0,1,548,58
1,899,8,1,1,1502,0,1,1,0,0,1,706,59
1,900,8,1,1,1502,0,1,1,0,0,1,781,60
1,901,8,1,1,1501,1,1,1,0,0,1,438,61
1,902,8,2,0,1502,0,1,1,0,0,1,718,62
1,903,8,1,1,1502,0,1,1,0,0,1,609,63
1,904,8,2,0,1501,0,1,1,0,0,1,504,64
1,905,8,2,0,1501,0,1,1,0,0,1,613,65
1,906,8,2,0,1501,1,1,1,0,0,1,402,66
1,907,8,1,1,1501,1,1,1,0,0,1,665,67
1,908,8,1,1,1501,0,1,1,0,0,1,705,68
1,909,8,1,1,1501,0,1,1,0,0,1,542,69
1,910,8,2,0,1501,1,1,1,0,0,1,455,70
1,911,8,2,0,1501,1,1,1,0,0,1,547,71
1,912,8,2,0,1501,0,1,1,0,0,1,657,72
1,913,8,2,0,1501,1,1,1,0,0,1,617,73
1,914,8,2,0,1501,1,1,1,0,0,1,707,74
1,915,8,1,1,1501,1,1,1,0,0,1,472,75
1,916,8,1,1,1501,0,1,0,0,0,0,550,76
1,917,8,1,1,1501,0,1,1,0,0,1,522,77
1,918,8,2,0,1501,0,1,1,0,0,1,578,78
1,919,8,1,1,1502,0,1,1,0,0,1,529,79
1,920,8,2,0,1502,1,1,1,0,0,1,578,80
1,921,8,2,0,1502,1,1,1,0,0,1,720,81
1,922,8,2,0,1501,0,1,1,0,0,1,631,82
1,923,8,1,1,1501,0,1,1,0,0,1,943,83
1,924,8,2,0,1501,0,1,1,0,0,1,967,84
1,925,8,2,0,1501,0,1,1,0,0,1,646,85
1,926,8,2,0,1501,0,1,1,0,0,1,579,86
1,927,8,1,1,1501,1,1,1,0,0,1,734,87
1,928,8,1,1,1501,0,1,1,0,0,1,643,88
1,929,8,1,1,1502,0,1,1,0,0,1,577,89
1,930,8,1,1,1501,1,1,1,0,0,1,602,90
1,931,8,1,1,1501,1,1,1,0,0,1,683,91
1,932,8,2,0,1502,1,1,1,0,0,1,500,92
1,933,8,1,1,1502,1,1,1,0,0,1,522,93
1,934,8,2,0,1501,0,1,1,0,0,1,604,94
1,935,8,2,0,1502,1,1,1,0,0,1,522,95
1,936,8,2,0,1501,0,1,1,0,0,1,580,96
1,937,8,2,0,1501,1,1,2,0,0,0,1011,97
1,938,8,2,0,1501,0,1,0,0,0,0,676,98
1,939,8,2,0,1501,1,1,1,0,0,1,714,99
1,940,8,2,0,1501,1,1,0,0,0,0,517,100
1,941,8,1,1,1501,0,1,1,0,0,1,838,101
1,942,8,2,0,1501,1,1,1,0,0,1,427,102
1,943,8,2,0,1501,1,1,1,0,0,1,443,103
1,944,8,1,1,1501,0,1,1,0,0,1,447,104
1,945,8,2,0,1501,1,1,1,0,0,1,740,105
1,946,8,2,0,1501,1,1,1,0,0,1,570,106
1,947,8,1,1,1501,0,1,1,0,0,1,919,107
1,948,8,1,1,1501,0,1,1,0,0,1,909,108
1,949,8,2,0,1501,0,1,1,0,0,1,656,109
1,950,8,1,1,1502,0,1,0,0,0,0,967,110
1,951,8,2,0,1502,1,1,1,0,0,1,693,111
1,952,8,2,0,1501,0,1,1,0,0,1,741,112
1,953,8,2,0,1501,1,1,1,0,0,1,616,113
1,954,8,2,0,1501,0,1,1,0,0,1,771,114
1,955,8,1,1,1502,1,1,1,0,0,1,511,115
1,956,8,2,0,1501,1,1,1,0,0,1,501,116
1,957,8,2,0,1501,0,1,1,0,0,1,638,117
1,958,8,1,1,1501,1,1,1,0,0,1,648,118
1,959,8,1,1,1501,1,1,1,0,0,1,550,119
1,960,8,2,0,1501,1,1,1,0,0,1,574,120
1,961,9,1,1,1501,0,2,1,0,0,1,730,1
1,962,9,2,0,1502,1,2,1,0,0,1,536,2
1,963,9,2,0,1501,0,2,1,0,0,1,607,3
1,964,9,2,0,1501,0,2,2,0,0,0,1011,4
1,965,9,2,0,1501,0,2,1,0,0,1,632,5
1,966,9,2,0,1501,0,2,0,1,0,1,594,6
1,967,9,1,1,1501,1,2,1,0,1,1,504,7
1,968,9,2,0,1501,1,2,0,1,0,1,568,8
1,969,9,2,0,1501,0,2,0,1,1,1,539,9
1,970,9,1,1,1501,1,2,1,0,1,1,797,10
1,971,9,2,0,1501,0,2,1,0,0,1,544,11
1,972,9,2,0,1501,0,2,0,1,0,1,635,12
1,973,9,1,1,1501,0,2,1,0,1,1,646,13
1,974,9,2,0,1501,0,2,0,0,0,0,597,14
1,975,9,2,0,1502,0,2,1,0,0,1,639,15
1,976,9,1,1,1501,1,2,0,1,0,1,626,16
1,977,9,2,0,1501,1,2,0,1,1,1,515,17
1,978,9,1,1,1501,1,2,1,0,1,1,566,18
1,979,9,2,0,1501,0,2,1,0,0,1,509,19
1,980,9,1,1,1501,1,2,1,0,0,1,710,20
1,981,9,2,0,1501,0,2,1,0,0,1,706,21
1,982,9,2,0,1501,1,2,1,0,0,1,414,22
1,983,9,1,1,1501,1,2,0,1,0,1,598,23
1,984,9,2,0,1501,0,2,1,0,1,1,795,24
1,985,9,1,1,1501,0,2,1,0,0,1,532,25
1,986,9,2,0,1501,0,2,1,0,0,1,620,26
1,987,9,1,1,1501,1,2,0,1,0,1,547,27
1,988,9,2,0,1501,0,2,0,1,1,1,466,28
1,989,9,1,1,1501,0,2,1,0,1,1,455,29
1,990,9,1,1,1501,1,2,1,0,0,1,392,30
1,991,9,2,0,1501,1,2,1,0,0,1,606,31
1,992,9,1,1,1502,0,2,1,0,0,1,449,32
1,993,9,2,0,1501,1,2,0,1,0,1,556,33
1,994,9,2,0,1501,1,2,1,0,1,1,630,34
1,995,9,2,0,1501,0,2,1,0,0,1,502,35
1,996,9,2,0,1501,1,2,0,1,0,1,548,36
1,997,9,1,1,1501,1,2,0,0,1,0,700,37
1,998,9,1,1,1501,1,2,1,0,0,1,647,38
1,999,9,2,0,1502,0,2,1,0,0,1,721,39
1,1000,9,1,1,1502,1,2,1,0,0,1,567,40
1,1001,9,1,1,1501,1,2,0,1,0,1,760,41
1,1002,9,1,1,1502,1,2,1,0,1,1,588,42
1,1003,9,1,1,1501,0,2,1,0,0,1,778,43
1,1004,9,1,1,1501,1,2,1,0,0,1,456,44
1,1005,9,2,0,1501,1,2,1,0,0,1,531,45
1,1006,9,2,0,1501,1,2,1,0,0,1,489,46
1,1007,9,2,0,1502,1,2,0,0,0,0,700,47
1,1008,9,2,0,1501,0,2,0,1,0,1,599,48
1,1009,9,1,1,1501,1,2,1,0,1,1,940,49
1,1010,9,2,0,1501,0,2,1,0,0,1,611,50
1,1011,9,1,1,1502,0,2,0,1,0,1,865,51
1,1012,9,2,0,1501,1,2,1,0,1,1,473,52
1,1013,9,2,0,1501,1,2,0,1,0,1,613,53
1,1014,9,1,1,1502,0,2,1,0,1,1,491,54
1,1015,9,2,0,1501,1,2,1,0,0,1,673,55
1,1016,9,2,0,1502,1,2,0,1,0,1,564,56
1,1017,9,1,1,1502,1,2,1,0,1,1,601,57
1,1018,9,2,0,1502,1,2,0,0,0,0,599,58
1,1019,9,2,0,1501,0,2,2,0,0,0,1011,59
1,1020,9,2,0,1501,1,2,1,0,0,1,421,60
1,1021,9,2,0,1502,0,2,0,1,0,1,623,61
1,1022,9,1,1,1502,1,2,0,1,1,1,759,62
1,1023,9,2,0,1501,1,2,1,0,1,1,614,63
1,1024,9,2,0,1501,0,2,1,0,0,1,497,64
1,1025,9,1,1,1502,1,2,1,0,0,1,622,65
1,1026,9,2,0,1502,1,2,0,1,0,1,527,66
1,1027,9,2,0,1501,1,2,0,1,1,1,635,67
1,1028,9,1,1,1502,1,2,1,0,1,1,537,68
1,1029,9,2,0,1501,0,2,1,0,0,1,426,69
1,1030,9,1,1,1501,1,2,1,0,0,1,602,70
1,1031,9,2,0,1503,0,2,1,0,0,1,352,71
1,1032,9,1,1,1501,0,2,1,0,0,1,347,72
1,1033,9,1,1,1502,1,2,1,0,0,1,506,73
1,1034,9,2,0,1501,1,2,0,0,0,0,500,74
1,1035,9,2,0,1501,1,2,0,0,0,0,887,75
1,1036,9,1,1,1501,0,2,1,0,0,1,615,76
1,1037,9,1,1,1501,1,2,0,1,0,1,799,77
1,1038,9,2,0,1501,1,2,1,0,1,1,453,78
1,1039,9,2,0,1501,0,2,1,0,0,1,521,79
1,1040,9,2,0,1502,0,2,1,0,0,1,529,80
1,1041,9,1,1,1501,0,2,0,0,0,0,404,81
1,1042,9,1,1,1501,0,2,1,0,0,1,679,82
1,1043,9,1,1,1501,1,2,1,0,0,1,477,83
1,1044,9,1,1,1501,1,2,2,0,0,0,1012,84
1,1045,9,2,0,1502,0,2,1,0,0,1,639,85
1,1046,9,1,1,1501,1,2,1,0,0,1,543,86
1,1047,9,1,1,1501,0,2,1,0,0,1,616,87
1,1048,9,2,0,1501,1,2,0,1,0,1,422,88
1,1049,9,1,1,1502,1,2,1,0,1,1,554,89
1,1050,9,2,0,1502,1,2,0,1,0,1,498,90
1,1051,9,2,0,1501,1,2,1,0,1,1,631,91
1,1052,9,2,0,1501,0,2,0,0,0,0,626,92
1,1053,9,1,1,1501,1,2,1,0,0,1,737,93
1,1054,9,1,1,1501,0,2,1,0,0,1,508,94
1,1055,9,2,0,1502,0,2,1,0,0,1,565,95
1,1056,9,1,1,1502,1,2,0,1,0,1,580,96
1,1057,9,1,1,1502,0,2,1,0,1,1,781,97
1,1058,9,1,1,1501,1,2,1,0,0,1,625,98
1,1059,9,1,1,1501,1,2,0,1,0,1,509,99
1,1060,9,1,1,1501,1,2,1,0,1,1,509,100
1,1061,9,2,0,1501,1,2,1,0,0,1,474,101
1,1062,9,1,1,1501,0,2,1,0,0,1,727,102
1,1063,9,1,1,1501,1,2,1,0,0,1,535,103
1,1064,9,2,0,1501,1,2,0,1,0,1,447,104
1,1065,9,1,1,1501,1,2,1,0,1,1,924,105
1,1066,9,2,0,1501,0,2,1,0,0,1,459,106
1,1067,9,2,0,1501,0,2,1,0,0,1,575,107
1,1068,9,1,1,1501,1,2,0,1,0,1,493,108
1,1069,9,1,1,1501,0,2,1,0,1,1,504,109
1,1070,9,2,0,1501,0,2,0,0,0,0,498,110
1,1071,9,1,1,1501,0,2,1,0,0,1,457,111
1,1072,9,2,0,1501,1,2,1,0,0,1,507,112
1,1073,9,1,1,1501,1,2,0,1,0,1,664,113
1,1074,9,1,1,1501,0,2,1,0,1,1,534,114
1,1075,9,2,0,1502,1,2,0,1,0,1,534,115
1,1076,9,2,0,1502,0,2,1,0,1,1,645,116
1,1077,9,2,0,1502,1,2,1,0,0,1,485,117
1,1078,9,2,0,1501,1,2,1,0,0,1,573,118
1,1079,9,2,0,1501,1,2,1,0,0,1,503,119
1,1080,9,1,1,1501,0,2,1,0,0,1,554,120
1,1081,10,2,0,1501,1,1,2,0,0,0,1012,1
1,1082,10,2,0,1501,0,1,1,0,0,1,521,2
1,1083,10,2,0,1501,0,1,0,0,0,0,309,3
1,1084,10,2,0,1501,1,1,0,0,0,0,611,4
1,1085,10,1,1,1501,0,1,1,0,0,1,502,5
1,1086,10,1,1,1502,1,1,1,0,0,1,559,6
1,1087,10,1,1,1501,0,1,1,0,0,1,601,7
1,1088,10,1,1,1501,1,1,1,0,0,1,403,8
1,1089,10,2,0,1501,0,1,1,0,0,1,528,9
1,1090,10,1,1,1501,1,1,1,0,0,1,481,10
1,1091,10,2,0,1502,0,1,1,0,0,1,680,11
1,1092,10,2,0,1501,0,1,0,0,0,0,520,12
1,1093,10,1,1,1502,0,1,1,0,0,1,555,13
1,1094,10,2,0,1502,0,1,1,0,0,1,946,14
1,1095,10,1,1,1501,0,1,1,0,0,1,560,15
1,1096,10,1,1,1502,1,1,1,0,0,1,685,16
1,1097,10,1,1,1501,0,1,0,0,0,0,470,17
1,1098,10,1,1,1501,0,1,1,0,0,1,546,18
1,1099,10,1,1,1501,0,1,1,0,0,1,582,19
1,1100,10,2,0,1501,1,1,1,0,0,1,789,20
1,1101,10,1,1,1501,0,1,1,0,0,1,536,21
1,1102,10,1,1,1501,1,1,1,0,0,1,632,22
1,1103,10,1,1,1501,1,1,1,0,0,1,620,23
1,1104,10,2,0,1502,1,1,1,0,0,1,729,24
1,1105,10,1,1,1501,1,1,1,0,0,1,880,25
1,1106,10,1,1,1501,1,1,1,0,0,1,554,26
1,1107,10,2,0,1501,1,1,1,0,0,1,571,27
1,1108,10,1,1,1501,1,1,1,0,0,1,518,28
1,1109,10,2,0,1501,0,1,1,0,0,1,629,29
1,1110,10,1,1,1502,1,1,0,0,0,0,792,30
1,1111,10,2,0,1502,1,1,1,0,0,1,336,31
1,1112,10,1,1,1501,0,1,1,0,0,1,750,32
1,1113,10,1,1,1501,1,1,1,0,0,1,451,33
1,1114,10,1,1,1501,0,1,1,0,0,1,607,34
1,1115,10,2,0,1501,0,1,0,0,0,0,549,35
1,1116,10,2,0,1501,1,1,2,0,0,0,1011,36
1,1117,10,2,0,1501,0,1,1,0,0,1,582,37
1,1118,10,2,0,1502,1,1,1,0,0,1,485,38
1,1119,10,1,1,1501,0,1,1,0,0,1,476,39
1,1120,10,2,0,1501,1,1,1,0,0,1,541,40
1,1121,10,1,1,1501,1,1,1,0,0,1,581,41
1,1122,10,1,1,1501,0,1,1,0,0,1,483,42
1,1123,10,2,0,1502,1,1,1,0,0,1,553,43
1,1124,10,2,0,1501,1,1,1,0,0,1,478,44
1,1125,10,2,0,1502,1,1,1,0,0,1,448,45
1,1126,10,2,0,1501,1,1,1,0,0,1,492,46
1,1127,10,1,1,1501,1,1,1,0,0,1,400,47
1,1128,10,1,1,1501,0,1,1,0,0,1,295,48
1,1129,10,2,0,1501,0,1,1,0,0,1,910,49
1,1130,10,2,0,1501,1,1,1,0,0,1,379,50
1,1131,10,1,1,1502,0,1,1,0,0,1,460,51
1,1132,10,2,0,1501,0,1,1,0,0,1,696,52
1,1133,10,1,1,1502,1,1,1,0,0,1,516,53
1,1134,10,2,0,1501,0,1,1,0,0,1,648,54
1,1135,10,2,0,1501,0,1,1,0,0,1,997,55
1,1136,10,1,1,1501,1,1,0,0,0,0,538,56
1,1137,10,1,1,1501,1,1,1,0,0,1,579,57
1,1138,10,2,0,1501,0,1,1,0,0,1,685,58
1,1139,10,2,0,1501,0,1,1,0,0,1,689,59
1,1140,10,1,1,1502,1,1,1,0,0,1,556,60
1,1141,10,2,0,1502,1,1,1,0,0,1,683,61
1,1142,10,2,0,1502,0,1,1,0,0,1,671,62
1,1143,10,2,0,1501,1,1,1,0,0,1,555,63
1,1144,10,1,1,1501,0,1,1,0,0,1,559,64
1,1145,10,1,1,1501,1,1,1,0,0,1,777,65
1,1146,10,1,1,1501,0,1,1,0,0,1,580,66
1,1147,10,1,1,1502,0,1,1,0,0,1,743,67
1,1148,10,2,0,1502,0,1,1,0,0,1,493,68
1,1149,10,2,0,1502,0,1,1,0,0,1,722,69
1,1150,10,1,1,1502,1,1,1,0,0,1,422,70
1,1151,10,1,1,1501,0,1,1,0,0,1,500,71
1,1152,10,1,1,1502,0,1,1,0,0,1,874,72
1,1153,10,1,1,1502,1,1,1,0,0,1,362,73
1,1154,10,2,0,1501,0,1,1,0,0,1,642,74
1,1155,10,2,0,1501,1,1,1,0,0,1,545,75
1,1156,10,2,0,1501,1,1,0,0,0,0,731,76
1,1157,10,1,1,1501,1,1,2,0,0,0,1012,77
1,1158,10,1,1,1502,0,1,1,0,0,1,628,78
1,1159,10,1,1,1501,0,1,1,0,0,1,566,79
1,1160,10,2,0,1502,0,1,1,0,0,1,617,80
1,1161,10,1,1,1501,0,1,1,0,0,1,600,81
1,1162,10,2,0,1502,0,1,1,0,0,1,579,82
1,1163,10,1,1,1501,1,1,1,0,0,1,496,83
1,1164,10,2,0,1501,0,1,1,0,0,1,971,84
1,1165,10,2,0,1502,1,1,1,0,0,1,469,85
1,1166,10,1,1,1501,0,1,1,0,0,1,473,86
1,1167,10,1,1,1501,0,1,0,0,0,0,626,87
1,1168,10,2,0,1502,0,1,1,0,0,1,522,88
1,1169,10,2,0,1501,0,1,1,0,0,1,571,89
1,1170,10,2,0,1501,0,1,1,0,0,1,585,90
1,1171,10,2,0,1502,0,1,1,0,0,1,516,91
1,1172,10,1,1,1502,1,1,1,0,0,1,420,92
1,1173,10,1,1,1501,1,1,1,0,0,1,532,93
1,1174,10,1,1,1501,0,1,1,0,0,1,327,94
1,1175,10,1,1,1501,1,1,1,0,0,1,530,95
1,1176,10,1,1,1501,1,1,1,0,0,1,455,96
1,1177,10,1,1,1501,0,1,1,0,0,1,532,97
1,1178,10,2,0,1501,1,1,1,0,0,1,660,98
1,1179,10,2,0,1501,1,1,0,0,0,0,570,99
1,1180,10,1,1,1502,0,1,1,0,0,1,979,100
1,1181,10,1,1,1502,1,1,0,0,0,0,590,101
1,1182,10,1,1,1502,0,1,1,0,0,1,607,102
1,1183,10,1,1,1501,0,1,1,0,0,1,578,103
1,1184,10,1,1,1501,1,1,1,0,0,1,581,104
1,1185,10,2,0,1501,0,1,1,0,0,1,573,105
1,1186,10,1,1,1501,1,1,1,0,0,1,485,106
1,1187,10,2,0,1501,0,1,1,0,0,1,628,107
1,1188,10,1,1,1501,1,1,1,0,0,1,587,108
1,1189,10,2,0,1501,1,1,1,0,0,1,819,109
1,1190,10,1,1,1502,1,1,1,0,0,1,477,110
1,1191,10,1,1,1501,1,1,1,0,0,1,612,111
1,1192,10,1,1,1501,0,1,1,0,0,1,624,112
1,1193,10,1,1,1502,0,1,1,0,0,1,676,113
1,1194,10,2,0,1502,1,1,1,0,0,1,747,114
1,1195,10,1,1,1501,0,1,1,0,0,1,512,115
1,1196,10,2,0,1501,0,1,1,0,0,1,499,116
1,1197,10,2,0,1501,1,1,2,0,0,0,1011,117
1,1198,10,1,1,1501,1,1,1,0,0,1,548,118
1,1199,10,1,1,1501,0,1,1,0,0,1,663,119
1,1200,10,2,0,1501,0,1,1,0,0,1,693,120
1,1201,11,2,0,1502,0,2,1,0,0,1,754,1
1,1202,11,1,1,1502,1,2,1,0,0,1,634,2
1,1203,11,2,0,1501,1,2,1,0,0,1,524,3
1,1204,11,1,1,1502,0,2,1,0,0,1,478,4
1,1205,11,1,1,1501,0,2,0,0,0,0,523,5
1,1206,11,1,1,1502,0,2,1,0,0,1,514,6
1,1207,11,1,1,1502,0,2,1,0,0,1,635,7
1,1208,11,2,0,1501,1,2,0,1,0,1,560,8
1,1209,11,2,0,1502,0,2,0,1,1,1,413,9
1,1210,11,2,0,1501,0,2,1,0,1,1,663,10
1,1211,11,2,0,1501,0,2,1,0,0,1,542,11
1,1212,11,1,1,1502,1,2,1,0,0,1,554,12
1,1213,11,1,1,1502,0,2,1,0,0,1,611,13
1,1214,11,1,1,1501,1,2,1,0,0,1,877,14
1,1215,11,1,1,1501,0,2,1,0,0,1,424,15
1,1216,11,1,1,1502,1,2,1,0,0,1,485,16
1,1217,11,1,1,1501,0,2,1,0,0,1,798,17
1,1218,11,1,1,1501,0,2,0,1,0,1,702,18
1,1219,11,2,0,1501,0,2,0,0,1,0,528,19
1,1220,11,1,1,1501,1,2,0,1,0,1,562,20
1,1221,11,2,0,1501,0,2,1,0,1,1,542,21
1,1222,11,2,0,1502,1,2,0,1,0,1,621,22
1,1223,11,1,1,1501,1,2,0,1,1,1,539,23
1,1224,11,1,1,1502,1,2,0,1,1,1,487,24
1,1225,11,2,0,1501,0,2,0,1,1,1,756,25
1,1226,11,1,1,1501,1,2,1,0,1,1,478,26
1,1227,11,2,0,1501,0,2,1,0,0,1,577,27
1,1228,11,2,0,1502,0,2,0,0,0,0,505,28
1,1229,11,2,0,1501,1,2,0,0,0,0,467,29
1,1230,11,1,1,1501,0,2,0,0,0,0,575,30
1,1231,11,2,0,1501,1,2,1,0,0,1,544,31
1,1232,11,2,0,1501,1,2,1,0,0,1,481,32
1,1233,11,2,0,1501,1,2,0,1,0,1,459,33
1,1234,11,2,0,1502,1,2,1,0,1,1,474,34
1,1235,11,2,0,1501,1,2,1,0,0,1,562,35
1,1236,11,1,1,1501,1,2,1,0,0,1,534,36
1,1237,11,2,0,1501,0,2,1,0,0,1,586,37
1,1238,11,1,1,1501,0,2,1,0,0,1,661,38
1,1239,11,1,1,1501,1,2,1,0,0,1,322,39
1,1240,11,2,0,1501,1,2,1,0,0,1,552,40
1,1241,11,2,0,1502,0,2,0,1,0,1,579,41
1,1242,11,1,1,1501,1,2,0,0,1,0,511,42
1,1243,11,1,1,1501,0,2,0,0,0,0,418,43
1,1244,11,2,0,1501,1,2,1,0,0,1,443,44
1,1245,11,1,1,1501,1,2,1,0,0,1,469,45
1,1246,11,1,1,1501,1,2,1,0,0,1,496,46
1,1247,11,2,0,1501,0,2,1,0,0,1,706,47
1,1248,11,1,1,1501,0,2,1,0,0,1,729,48
1,1249,11,1,1,1501,0,2,1,0,0,1,658,49
1,1250,11,2,0,1502,1,2,1,0,0,1,513,50
1,1251,11,1,1,1501,0,2,0,1,0,1,566,51
1,1252,11,1,1,1501,1,2,1,0,1,1,527,52
1,1253,11,1,1,1501,1,2,0,1,0,1,521,53
1,1254,11,1,1,1501,0,2,1,0,1,1,555,54
1,1255,11,1,1,1501,1,2,1,0,0,1,490,55
1,1256,11,2,0,1501,1,2,0,1,0,1,559,56
1,1257,11,1,1,1501,1,2,1,0,1,1,582,57
1,1258,11,1,1,1502,0,2,0,1,0,1,625,58
1,1259,11,2,0,1502,1,2,1,0,1,1,467,59
1,1260,11,2,0,1501,0,2,1,0,0,1,517,60
1,1261,11,1,1,1501,0,2,1,0,0,1,799,61
1,1262,11,2,0,1502,0,2,1,0,0,1,701,62
1,1263,11,2,0,1501,0,2,0,0,0,0,581,63
1,1264,11,1,1,1502,1,2,0,1,0,1,694,64
1,1265,11,1,1,1502,1,2,1,0,1,1,538,65
1,1266,11,1,1,1502,1,2,1,0,0,1,486,66
1,1267,11,2,0,1501,1,2,1,0,0,1,436,67
1,1268,11,2,0,1501,0,2,0,1,0,1,560,68
1,1269,11,1,1,1501,0,2,0,1,1,1,622,69
1,1270,11,2,0,1501,0,2,0,0,1,0,893,70
1,1271,11,1,1,1501,0,2,1,0,0,1,594,71
1,1272,11,1,1,1502,1,2,0,1,0,1,473,72
1,1273,11,2,0,1501,1,2,0,1,1,1,592,73
1,1274,11,1,1,1502,0,2,0,0,1,0,566,74
1,1275,11,2,0,1502,1,2,1,0,0,1,516,75
1,1276,11,2,0,1501,0,2,0,1,0,1,482,76
1,1277,11,2,0,1502,0,2,0,0,1,0,595,77
1,1278,11,2,0,1501,0,2,0,0,0,0,476,78
1,1279,11,2,0,1501,0,2,1,0,0,1,606,79
1,1280,11,1,1,1501,0,2,0,0,0,0,596,80
1,1281,11,2,0,1501,1,2,2,0,0,0,1011,81
1,1282,11,2,0,1501,1,2,1,0,0,1,514,82
1,1283,11,2,0,1501,1,2,0,1,0,1,529,83
1,1284,11,1,1,1501,1,2,0,1,1,1,445,84
1,1285,11,2,0,1501,0,2,1,0,1,1,443,85
1,1286,11,1,1,1501,0,2,0,1,0,1,441,86
1,1287,11,1,1,1501,0,2,0,0,1,0,604,87
1,1288,11,2,0,1501,1,2,0,0,0,0,408,88
1,1289,11,2,0,1501,1,2,1,0,0,1,478,89
1,1290,11,1,1,1502,0,2,1,0,0,1,899,90
1,1291,11,2,0,1501,0,2,0,1,0,1,507,91
1,1292,11,1,1,1502,0,2,0,0,1,0,475,92
1,1293,11,1,1,1501,0,2,1,0,0,1,490,93
1,1294,11,2,0,1502,0,2,1,0,0,1,892,94
1,1295,11,2,0,1501,1,2,1,0,0,1,411,95
1,1296,11,2,0,1501,1,2,0,0,0,0,557,96
1,1297,11,2,0,1501,0,2,2,0,0,0,1012,97
1,1298,11,1,1,1502,1,2,0,1,0,1,369,98
1,1299,11,1,1,1501,1,2,1,0,1,1,699,99
1,1300,11,1,1,1501,0,2,0,1,0,1,463,100
1,1301,11,2,0,1501,1,2,1,0,1,1,480,101
1,1302,11,1,1,1501,0,2,2,0,0,0,1011,102
1,1303,11,1,1,1502,1,2,1,0,0,1,571,103
1,1304,11,1,1,1502,1,2,0,0,0,0,459,104
1,1305,11,2,0,1502,0,2,0,0,0,0,578,105
1,1306,11,1,1,1501,0,2,0,1,0,1,529,106
1,1307,11,2,0,1501,0,2,1,0,1,1,576,107
1,1308,11,2,0,1501,1,2,0,1,0,1,488,108
1,1309,11,1,1,1501,0,2,1,0,1,1,626,109
1,1310,11,2,0,1501,1,2,1,0,0,1,627,110
1,1311,11,1,1,1501,1,2,0,0,0,0,585,111
1,1312,11,2,0,1501,1,2,1,0,0,1,609,112
1,1313,11,1,1,1501,0,2,1,0,0,1,614,113
1,1314,11,2,0,1502,1,2,1,0,0,1,442,114
1,1315,11,2,0,1501,1,2,0,0,0,0,547,115
1,1316,11,2,0,1501,1,2,1,0,0,1,986,116
1,1317,11,1,1,1501,1,2,1,0,0,1,496,117
1,1318,11,2,0,1502,0,2,1,0,0,1,561,118
1,1319,11,1,1,1501,0,2,0,0,0,0,517,119
1,1320,11,2,0,1501,0,2,1,0,0,1,1000,120
1,1321,12,1,1,1501,1,3,1,0,0,1,529,1
1,1322,12,2,0,1501,1,3,0,1,0,1,520,2
1,1323,12,1,1,1501,0,3,1,0,1,1,531,3
1,1324,12,2,0,1501,0,3,0,1,0,1,532,4
1,1325,12,2,0,1502,0,3,1,0,1,1,470,5
1,1326,12,1,1,1501,0,3,0,1,0,1,573,6
1,1327,12,1,1,1501,0,3,1,0,1,1,414,7
1,1328,12,2,0,1501,0,3,1,0,0,1,489,8
1,1329,12,1,1,1501,0,3,1,0,0,1,408,9
1,1330,12,2,0,1501,0,3,1,0,0,1,429,10
1,1331,12,2,0,1501,1,3,0,1,0,1,502,11
1,1332,12,1,1,1502,1,3,1,0,1,1,431,12
1,1333,12,2,0,1501,1,3,1,0,0,1,474,13
1,1334,12,2,0,1501,0,3,0,1,0,1,483,14
1,1335,12,1,1,1501,0,3,0,0,1,0,497,15
1,1336,12,2,0,1501,0,3,1,0,0,1,476,16
1,1337,12,2,0,1501,0,3,0,1,0,1,501,17
1,1338,12,2,0,1501,1,3,0,1,1,1,691,18
1,1339,12,1,1,1501,0,3,0,1,1,1,608,19
1,1340,12,2,0,1501,0,3,1,0,1,1,576,20
1,1341,12,2,0,1501,1,3,1,0,0,1,533,21
1,1342,12,2,0,1502,1,3,1,0,0,1,496,22
1,1343,12,1,1,1501,0,3,0,0,0,0,487,23
1,1344,12,1,1,1501,1,3,0,0,0,0,767,24
1,1345,12,1,1,1501,0,3,0,1,0,1,671,25
1,1346,12,2,0,1501,0,3,0,0,1,0,487,26
1,1347,12,1,1,1501,0,3,1,0,0,1,546,27
1,1348,12,2,0,1501,1,3,1,0,0,1,663,28
1,1349,12,2,0,1502,0,3,0,1,0,1,538,29
1,1350,12,1,1,1501,1,3,0,0,1,0,520,30
1,1351,12,1,1,1501,1,3,1,0,0,1,636,31
1,1352,12,2,0,1501,0,3,1,0,0,1,510,32
1,1353,12,1,1,1501,0,3,1,0,0,1,764,33
1,1354,12,2,0,1501,1,3,1,0,0,1,579,34
1,1355,12,1,1,1501,1,3,0,1,0,1,445,35
1,1356,12,1,1,1501,1,3,0,1,1,1,788,36
1,1357,12,2,0,1502,0,3,0,1,1,1,404,37
1,1358,12,2,0,1501,0,3,0,0,1,0,574,38
1,1359,12,2,0,1503,0,3,1,0,0,1,507,39
1,1360,12,1,1,1501,0,3,1,0,0,1,516,40
1,1361,12,1,1,1502,0,3,1,0,0,1,506,41
1,1362,12,2,0,1501,1,3,1,0,0,1,479,42
1,1363,12,2,0,1502,0,3,1,0,0,1,468,43
1,1364,12,2,0,1501,1,3,0,1,0,1,542,44
1,1365,12,1,1,1501,1,3,0,1,1,1,501,45
1,1366,12,1,1,1502,0,3,1,0,1,1,524,46
1,1367,12,1,1,1502,0,3,0,1,0,1,538,47
1,1368,12,1,1,1502,1,3,0,0,1,0,482,48
1,1369,12,1,1,1501,1,3,1,0,0,1,496,49
1,1370,12,1,1,1501,1,3,1,0,0,1,549,50
1,1371,12,1,1,1501,1,3,1,0,0,1,648,51
1,1372,12,2,0,1501,1,3,1,0,0,1,581,52
1,1373,12,2,0,1501,0,3,1,0,0,1,469,53
1,1374,12,1,1,1502,1,3,0,0,0,0,472,54
1,1375,12,2,0,1501,0,3,0,0,0,0,621,55
1,1376,12,1,1,1502,1,3,1,0,0,1,402,56
1,1377,12,2,0,1501,1,3,1,0,0,1,550,57
1,1378,12,2,0,1501,1,3,0,1,0,1,467,58
1,1379,12,2,0,1501,0,3,1,0,1,1,558,59
1,1380,12,1,1,1501,0,3,0,0,0,0,454,60
1,1381,12,2,0,1502,0,3,1,0,0,1,502,61
1,1382,12,1,1,1501,1,3,1,0,0,1,496,62
1,1383,12,2,0,1501,1,3,0,0,0,0,667,63
1,1384,12,2,0,1501,1,3,0,1,0,1,608,64
1,1385,12,1,1,1501,1,3,0,0,1,0,552,65
1,1386,12,2,0,1501,0,3,0,1,0,1,892,66
1,1387,12,1,1,1501,0,3,1,0,1,1,654,67
1,1388,12,2,0,1502,1,3,1,0,0,1,347,68
1,1389,12,2,0,1502,1,3,1,0,0,1,571,69
1,1390,12,1,1,1501,0,3,0,1,0,1,387,70
1,1391,12,1,1,1502,1,3,0,0,1,0,615,71
1,1392,12,2,0,1502,1,3,1,0,0,1,565,72
1,1393,12,2,0,1501,1,3,1,0,0,1,554,73
1,1394,12,1,1,1501,0,3,1,0,0,1,519,74
1,1395,12,2,0,1502,1,3,0,1,0,1,521,75
1,1396,12,2,0,1502,0,3,0,0,1,0,425,76
1,1397,12,2,0,1501,0,3,1,0,0,1,529,77
1,1398,12,1,1,1501,1,3,1,0,0,1,401,78
1,1399,12,1,1,1502,0,3,0,1,0,1,409,79
1,1400,12,2,0,1501,1,3,1,0,1,1,963,80
1,1401,12,2,0,1501,0,3,1,0,0,1,426,81
1,1402,12,1,1,1501,1,3,1,0,0,1,648,82
1,1403,12,1,1,1501,1,3,1,0,0,1,501,83
1,1404,12,2,0,1501,1,3,0,1,0,1,468,84
1,1405,12,2,0,1502,0,3,1,0,1,1,601,85
1,1406,12,2,0,1501,0,3,0,1,0,1,528,86
1,1407,12,1,1,1501,0,3,1,0,1,1,721,87
1,1408,12,2,0,1501,0,3,0,0,0,0,519,88
1,1409,12,2,0,1502,0,3,1,0,0,1,660,89
1,1410,12,2,0,1502,0,3,1,0,0,1,698,90
1,1411,12,1,1,1501,0,3,0,1,0,1,421,91
1,1412,12,2,0,1502,1,3,0,1,1,1,501,92
1,1413,12,1,1,1501,1,3,0,1,1,1,505,93
1,1414,12,2,0,1501,0,3,0,0,1,0,557,94
1,1415,12,2,0,1502,0,3,0,0,0,0,567,95
1,1416,12,2,0,1501,0,3,1,0,0,1,446,96
1,1417,12,2,0,1501,0,3,0,1,0,1,675,97
1,1418,12,2,0,1501,0,3,1,0,1,1,545,98
1,1419,12,2,0,1501,1,3,1,0,0,1,517,99
1,1420,12,1,1,1501,1,3,1,0,0,1,498,100
1,1421,12,1,1,1501,0,3,0,0,0,0,489,101
1,1422,12,1,1,1501,0,3,1,0,0,1,547,102
1,1423,12,1,1,1501,1,3,0,0,0,0,661,103
1,1424,12,1,1,1501,1,3,1,0,0,1,557,104
1,1425,12,2,0,1502,0,3,1,0,0,1,550,105
1,1426,12,1,1,1501,1,3,1,0,0,1,393,106
1,1427,12,1,1,1501,0,3,1,0,0,1,570,107
1,1428,12,2,0,1502,1,3,0,0,0,0,746,108
1,1429,12,1,1,1501,0,3,1,0,0,1,672,109
1,1430,12,1,1,1501,0,3,1,0,0,1,659,110
1,1431,12,2,0,1501,1,3,1,0,0,1,399,111
1,1432,12,2,0,1503,1,3,0,0,0,0,384,112
1,1433,12,2,0,1501,1,3,1,0,0,1,360,113
1,1434,12,2,0,1502,0,3,0,0,0,0,399,114
1,1435,12,1,1,1501,0,3,1,0,0,1,405,115
1,1436,12,1,1,1501,0,3,0,1,0,1,580,116
1,1437,12,1,1,1502,0,3,2,0,1,0,1011,117
1,1438,12,1,1,1501,1,3,0,0,0,0,553,118
1,1439,12,2,0,1501,1,3,1,0,0,1,387,119
1,1440,12,2,0,1501,0,3,1,0,0,1,466,120
3,1,1,2,0,1501,0,1,1,0,0,1,901,1
3,2,1,2,0,1501,1,1,1,0,0,1,682,2
3,3,1,2,0,1501,0,1,1,0,0,1,718,3
3,4,1,1,1,1501,0,1,1,0,0,1,673,4
3,5,1,1,1,1501,0,1,1,0,0,1,612,5
3,6,1,2,0,1501,1,1,1,0,0,1,601,6
3,7,1,2,0,1501,1,1,1,0,0,1,684,7
3,8,1,1,1,1501,1,1,1,0,0,1,726,8
3,9,1,2,0,1501,1,1,1,0,0,1,609,9
3,10,1,2,0,1501,1,1,1,0,0,1,597,10
3,11,1,1,1,1502,1,1,1,0,0,1,589,11
3,12,1,2,0,1501,1,1,1,0,0,1,612,12
3,13,1,1,1,1502,1,1,1,0,0,1,782,13
3,14,1,1,1,1501,0,1,1,0,0,1,494,14
3,15,1,1,1,1502,1,1,1,0,0,1,631,15
3,16,1,1,1,1501,0,1,1,0,0,1,630,16
3,17,1,1,1,1501,1,1,1,0,0,1,762,17
3,18,1,1,1,1502,0,1,0,0,0,0,688,18
3,19,1,2,0,1502,1,1,1,0,0,1,640,19
3,20,1,2,0,1502,1,1,1,0,0,1,733,20
3,21,1,1,1,1502,0,1,1,0,0,1,550,21
3,22,1,2,0,1501,1,1,1,0,0,1,674,22
3,23,1,2,0,1502,0,1,1,0,0,1,862,23
3,24,1,1,1,1501,0,1,1,0,0,1,732,24
3,25,1,1,1,1501,1,1,1,0,0,1,572,25
3,26,1,1,1,1502,0,1,1,0,0,1,682,26
3,27,1,1,1,1502,0,1,1,0,0,1,602,27
3,28,1,1,1,1501,1,1,1,0,0,1,569,28
3,29,1,2,0,1501,1,1,1,0,0,1,638,29
3,30,1,1,1,1501,0,1,1,0,0,1,767,30
3,31,1,2,0,1501,1,1,1,0,0,1,693,31
3,32,1,1,1,1502,0,1,1,0,0,1,638,32
3,33,1,2,0,1502,1,1,1,0,0,1,825,33
3,34,1,1,1,1501,1,1,1,0,0,1,695,34
3,35,1,1,1,1502,0,1,1,0,0,1,588,35
3,36,1,2,0,1501,0,1,1,0,0,1,669,36
3,37,1,1,1,1501,0,1,1,0,0,1,652,37
3,38,1,2,0,1501,0,1,0,0,0,0,808,38
3,39,1,2,0,1501,0,1,1,0,0,1,661,39
3,40,1,2,0,1501,0,1,1,0,0,1,566,40
3,41,1,1,1,1501,1,1,1,0,0,1,586,41
3,42,1,1,1,1502,1,1,1,0,0,1,736,42
3,43,1,1,1,1502,1,1,1,0,0,1,927,43
3,44,1,2,0,1502,0,1,1,0,0,1,724,44
3,45,1,1,1,1502,0,1,2,0,0,0,1012,45
3,46,1,1,1,1502,1,1,1,0,0,1,758,46
3,47,1,1,1,1501,0,1,1,0,0,1,657,47
3,48,1,2,0,1501,0,1,1,0,0,1,694,48
3,49,1,1,1,1502,0,1,0,0,0,0,920,49
3,50,1,2,0,1501,1,1,0,0,0,0,737,50
3,51,1,1,1,1501,1,1,1,0,0,1,657,51
3,52,1,2,0,1501,1,1,1,0,0,1,784,52
3,53,1,2,0,1501,0,1,0,0,0,0,651,53
3,54,1,1,1,1502,0,1,1,0,0,1,567,54
3,55,1,2,0,1501,1,1,1,0,0,1,681,55
3,56,1,1,1,1501,1,1,1,0,0,1,808,56
3,57,1,1,1,1502,1,1,1,0,0,1,627,57
3,58,1,2,0,1501,0,1,1,0,0,1,671,58
3,59,1,1,1,1501,0,1,2,0,0,0,1012,59
3,60,1,1,1,1501,0,1,1,0,0,1,652,60
3,61,1,1,1,1501,1,1,0,0,0,0,733,61
3,62,1,2,0,1501,0,1,1,0,0,1,925,62
3,63,1,1,1,1501,1,1,1,0,0,1,475,63
3,64,1,1,1,1501,0,1,1,0,0,1,651,64
3,65,1,2,0,1501,0,1,1,0,0,1,749,65
3,66,1,2,0,1501,0,1,1,0,0,1,588,66
3,67,1,1,1,1502,1,1,1,0,0,1,625,67
3,68,1,2,0,1501,0,1,1,0,0,1,677,68
3,69,1,2,0,1501,1,1,1,0,0,1,636,69
3,70,1,2,0,1501,1,1,0,0,0,0,640,70
3,71,1,2,0,1502,1,1,1,0,0,1,756,71
3,72,1,2,0,1501,0,1,1,0,0,1,630,72
3,73,1,2,0,1501,1,1,1,0,0,1,693,73
3,74,1,1,1,1501,0,1,1,0,0,1,595,74
3,75,1,1,1,1502,1,1,1,0,0,1,788,75
3,76,1,1,1,1502,0,1,1,0,0,1,779,76
3,77,1,1,1,1501,0,1,1,0,0,1,581,77
3,78,1,1,1,1501,1,1,1,0,0,1,616,78
3,79,1,2,0,1501,1,1,1,0,0,1,798,79
3,80,1,2,0,1501,1,1,1,0,0,1,723,80
3,81,1,2,0,1501,1,1,0,0,0,0,738,81
3,82,1,1,1,1502,0,1,1,0,0,1,737,82
3,83,1,1,1,1501,0,1,1,0,0,1,894,83
3,84,1,2,0,1501,1,1,1,0,0,1,625,84
3,85,1,1,1,1501,0,1,0,0,0,0,798,85
3,86,1,1,1,1501,1,1,0,0,0,0,983,86
3,87,1,1,1,1501,0,1,1,0,0,1,598,87
3,88,1,1,1,1501,0,1,1,0,0,1,640,88
3,89,1,1,1,1501,0,1,1,0,0,1,551,89
3,90,1,2,0,1501,1,1,1,0,0,1,603,90
3,91,1,1,1,1501,1,1,1,0,0,1,593,91
3,92,1,2,0,1502,0,1,1,0,0,1,703,92
3,93,1,1,1,1502,1,1,1,0,0,1,720,93
3,94,1,2,0,1502,0,1,1,0,0,1,831,94
3,95,1,2,0,1501,0,1,0,0,0,0,853,95
3,96,1,1,1,1501,0,1,1,0,0,1,688,96
3,97,1,2,0,1501,1,1,1,0,0,1,853,97
3,98,1,2,0,1502,1,1,1,0,0,1,732,98
3,99,1,2,0,1501,1,1,1,0,0,1,671,99
3,100,1,1,1,1502,1,1,1,0,0,1,578,100
3,101,1,1,1,1502,0,1,1,0,0,1,975,101
3,102,1,1,1,1501,1,1,1,0,0,1,756,102
3,103,1,2,0,1501,0,1,1,0,0,1,870,103
3,104,1,1,1,1501,1,1,1,0,0,1,656,104
3,105,1,1,1,1501,1,1,1,0,0,1,665,105
3,106,1,2,0,1501,0,1,1,0,0,1,678,106
3,107,1,1,1,1501,1,1,1,0,0,1,718,107
3,108,1,1,1,1502,0,1,1,0,0,1,566,108
3,109,1,1,1,1501,1,1,1,0,0,1,597,109
3,110,1,2,0,1501,1,1,1,0,0,1,652,110
3,111,1,1,1,1502,0,1,1,0,0,1,662,111
3,112,1,2,0,1501,0,1,1,0,0,1,831,112
3,113,1,2,0,1501,1,1,1,0,0,1,743,113
3,114,1,2,0,1501,0,1,1,0,0,1,772,114
3,115,1,1,1,1501,1,1,1,0,0,1,869,115
3,116,1,1,1,1501,0,1,1,0,0,1,534,116
3,117,1,1,1,1501,1,1,1,0,0,1,447,117
3,118,1,2,0,1502,1,1,0,0,0,0,570,118
3,119,1,1,1,1501,0,1,1,0,0,1,615,119
3,120,1,2,0,1502,1,1,0,0,0,0,545,120
3,121,2,2,0,1501,1,3,1,0,0,1,690,1
3,122,2,2,0,1502,0,3,0,1,0,1,645,2
3,123,2,2,0,1502,0,3,1,0,1,1,965,3
3,124,2,1,1,1501,1,3,1,0,0,1,669,4
3,125,2,2,0,1501,0,3,1,0,0,1,716,5
3,126,2,2,0,1502,1,3,0,0,0,0,745,6
3,127,2,2,0,1502,0,3,0,0,0,0,877,7
3,128,2,2,0,1501,0,3,1,0,0,1,612,8
3,129,2,2,0,1501,0,3,1,0,0,1,652,9
3,130,2,2,0,1501,1,3,1,0,0,1,573,10
3,131,2,2,0,1501,0,3,1,0,0,1,704,11
3,132,2,2,0,1502,1,3,0,1,0,1,787,12
3,133,2,2,0,1501,1,3,1,0,1,1,652,13
3,134,2,2,0,1501,0,3,0,0,0,0,959,14
3,135,2,1,1,1501,0,3,1,0,0,1,695,15
3,136,2,2,0,1501,1,3,0,1,0,1,680,16
3,137,2,2,0,1502,1,3,0,1,1,1,715,17
3,138,2,1,1,1501,0,3,0,1,1,1,575,18
3,139,2,1,1,1501,0,3,1,0,1,1,696,19
3,140,2,1,1,1501,1,3,0,1,0,1,590,20
3,141,2,1,1,1502,1,3,1,0,1,1,652,21
3,142,2,2,0,1501,1,3,1,0,0,1,697,22
3,143,2,1,1,1502,0,3,0,1,0,1,831,23
3,144,2,2,0,1502,0,3,1,0,1,1,814,24
3,145,2,2,0,1501,0,3,1,0,0,1,636,25
3,146,2,2,0,1501,0,3,0,1,0,1,886,26
3,147,2,2,0,1501,1,3,0,1,1,1,710,27
3,148,2,1,1,1501,0,3,1,0,1,1,705,28
3,149,2,1,1,1501,0,3,0,1,0,1,833,29
3,150,2,2,0,1501,1,3,0,1,1,1,621,30
3,151,2,2,0,1502,0,3,0,1,1,1,640,31
3,152,2,1,1,1502,1,3,0,0,1,0,706,32
3,153,2,1,1,1501,1,3,0,1,0,1,973,33
3,154,2,1,1,1502,0,3,1,0,1,1,764,34
3,155,2,1,1,1501,1,3,1,0,0,1,671,35
3,156,2,2,0,1502,0,3,0,1,0,1,743,36
3,157,2,2,0,1502,0,3,1,0,1,1,732,37
3,158,2,2,0,1501,0,3,0,1,0,1,657,38
3,159,2,2,0,1501,1,3,0,1,1,1,821,39
3,160,2,2,0,1501,1,3,0,0,1,0,617,40
3,161,2,2,0,1501,0,3,1,0,0,1,647,41
3,162,2,2,0,1502,0,3,0,1,0,1,641,42
3,163,2,2,0,1501,0,3,0,1,1,1,685,43
3,164,2,2,0,1501,1,3,0,1,1,1,783,44
3,165,2,2,0,1501,0,3,0,1,1,1,766,45
3,166,2,2,0,1502,0,3,0,1,1,1,590,46
3,167,2,1,1,1501,1,3,0,0,1,0,779,47
3,168,2,2,0,1501,1,3,1,0,0,1,732,48
3,169,2,2,0,1502,0,3,2,0,0,0,1012,49
3,170,2,1,1,1501,0,3,0,1,0,1,600,50
3,171,2,2,0,1502,0,3,1,0,1,1,573,51
3,172,2,2,0,1501,1,3,1,0,0,1,717,52
3,173,2,2,0,1501,1,3,0,1,0,1,898,53
3,174,2,1,1,1501,1,3,0,0,1,0,777,54
3,175,2,1,1,1501,0,3,0,0,0,0,830,55
3,176,2,1,1,1502,0,3,1,0,0,1,606,56
3,177,2,2,0,1502,0,3,0,1,0,1,561,57
3,178,2,1,1,1501,1,3,1,0,1,1,891,58
3,179,2,2,0,1502,1,3,1,0,0,1,797,59
3,180,2,2,0,1501,1,3,0,0,0,0,691,60
3,181,2,1,1,1501,0,3,1,0,0,1,565,61
3,182,2,1,1,1502,1,3,1,0,0,1,677,62
3,183,2,2,0,1501,0,3,1,0,0,1,905,63
3,184,2,1,1,1501,1,3,1,0,0,1,688,64
3,185,2,1,1,1501,0,3,1,0,0,1,832,65
3,186,2,2,0,1501,0,3,1,0,0,1,801,66
3,187,2,1,1,1502,0,3,0,1,0,1,699,67
3,188,2,1,1,1501,0,3,0,0,1,0,765,68
3,189,2,2,0,1501,1,3,0,1,0,1,772,69
3,190,2,2,0,1501,0,3,1,0,1,1,912,70
3,191,2,2,0,1501,0,3,1,0,0,1,658,71
3,192,2,1,1,1501,1,3,1,0,0,1,578,72
3,193,2,1,1,1501,0,3,1,0,0,1,590,73
3,194,2,1,1,1502,1,3,0,1,0,1,740,74
3,195,2,1,1,1502,1,3,0,1,1,1,666,75
3,196,2,2,0,1501,0,3,0,1,1,1,712,76
3,197,2,2,0,1501,0,3,2,0,1,0,1011,77
3,198,2,2,0,1501,1,3,0,1,0,1,620,78
3,199,2,2,0,1501,0,3,1,0,1,1,581,79
3,200,2,1,1,1501,1,3,0,0,0,0,586,80
3,201,2,1,1,1502,0,3,0,1,0,1,586,81
3,202,2,2,0,1502,0,3,0,0,1,0,681,82
3,203,2,2,0,1501,0,3,1,0,0,1,534,83
3,204,2,2,0,1501,1,3,0,0,0,0,584,84
3,205,2,2,0,1502,0,3,1,0,0,1,590,85
3,206,2,2,0,1502,1,3,1,0,0,1,553,86
3,207,2,2,0,1501,0,3,0,0,0,0,618,87
3,208,2,2,0,1501,0,3,1,0,0,1,583,88
3,209,2,2,0,1502,1,3,0,0,0,0,504,89
3,210,2,1,1,1502,1,3,0,1,0,1,711,90
3,211,2,2,0,1501,1,3,1,0,1,1,658,91
3,212,2,1,1,1501,1,3,0,1,0,1,993,92
3,213,2,2,0,1502,1,3,0,1,1,1,700,93
3,214,2,1,1,1502,1,3,0,0,1,0,891,94
3,215,2,1,1,1501,1,3,0,1,0,1,805,95
3,216,2,1,1,1501,1,3,0,1,1,1,741,96
3,217,2,1,1,1501,0,3,0,1,1,1,749,97
3,218,2,2,0,1501,1,3,0,1,1,1,571,98
3,219,2,2,0,1501,1,3,1,0,1,1,692,99
3,220,2,2,0,1501,1,3,0,1,0,1,682,100
3,221,2,2,0,1502,0,3,0,1,1,1,579,101
3,222,2,2,0,1501,0,3,0,1,1,1,781,102
3,223,2,1,1,1502,0,3,2,0,1,0,1011,103
3,224,2,1,1,1502,1,3,0,1,0,1,662,104
3,225,2,1,1,1502,1,3,0,0,1,0,666,105
3,226,2,1,1,1502,1,3,0,1,0,1,686,106
3,227,2,1,1,1502,0,3,0,1,1,1,562,107
3,228,2,2,0,1502,0,3,0,0,1,0,721,108
3,229,2,2,0,1501,0,3,1,0,0,1,596,109
3,230,2,2,0,1501,0,3,1,0,0,1,700,110
3,231,2,2,0,1501,1,3,0,0,0,0,586,111
3,232,2,1,1,1501,1,3,0,0,0,0,595,112
3,233,2,2,0,1502,1,3,0,0,0,0,603,113
3,234,2,1,1,1501,0,3,0,0,0,0,839,114
3,235,2,1,1,1501,0,3,1,0,0,1,641,115
3,236,2,2,0,1501,1,3,1,0,0,1,667,116
3,237,2,1,1,1502,1,3,1,0,0,1,728,117
3,238,2,1,1,1501,1,3,1,0,0,1,898,118
3,239,2,2,0,1501,1,3,0,0,0,0,707,119
3,240,2,2,0,1501,0,3,1,0,0,1,878,120
3,241,3,1,1,1501,1,1,1,0,0,1,768,1
3,242,3,1,1,1502,1,1,0,0,0,0,960,2
3,243,3,2,0,1502,1,1,1,0,0,1,646,3
3,244,3,1,1,1501,0,1,1,0,0,1,718,4
3,245,3,2,0,1501,0,1,1,0,0,1,855,5
3,246,3,1,1,1501,1,1,1,0,0,1,735,6
3,247,3,2,0,1501,1,1,0,0,0,0,790,7
3,248,3,1,1,1501,1,1,1,0,0,1,803,8
3,249,3,2,0,1501,0,1,1,0,0,1,756,9
3,250,3,1,1,1501,1,1,1,0,0,1,675,10
3,251,3,2,0,1501,0,1,1,0,0,1,603,11
3,252,3,2,0,1501,0,1,1,0,0,1,773,12
3,253,3,2,0,1501,0,1,1,0,0,1,922,13
3,254,3,2,0,1501,1,1,1,0,0,1,718,14
3,255,3,1,1,1501,1,1,1,0,0,1,757,15
3,256,3,1,1,1501,0,1,1,0,0,1,990,16
3,257,3,1,1,1501,0,1,1,0,0,1,919,17
3,258,3,2,0,1501,1,1,2,0,0,0,1011,18
3,259,3,2,0,1501,0,1,1,0,0,1,700,19
3,260,3,2,0,1502,0,1,1,0,0,1,792,20
3,261,3,2,0,1501,1,1,1,0,0,1,699,21
3,262,3,1,1,1501,1,1,0,0,0,0,860,22
3,263,3,1,1,1501,0,1,1,0,0,1,768,23
3,264,3,1,1,1501,1,1,2,0,0,0,1011,24
3,265,3,1,1,1501,1,1,1,0,0,1,718,25
3,266,3,1,1,1502,1,1,0,0,0,0,697,26
3,267,3,1,1,1501,0,1,0,0,0,0,979,27
3,268,3,1,1,1501,1,1,0,0,0,0,772,28
3,269,3,2,0,1501,0,1,0,0,0,0,679,29
3,270,3,2,0,1501,0,1,1,0,0,1,698,30
3,271,3,2,0,1501,0,1,1,0,0,1,829,31
3,272,3,1,1,1502,1,1,0,0,0,0,783,32
3,273,3,1,1,1502,1,1,0,0,0,0,746,33
3,274,3,2,0,1501,1,1,1,0,0,1,833,34
3,275,3,1,1,1501,1,1,1,0,0,1,656,35
3,276,3,1,1,1501,0,1,2,0,0,0,1012,36
3,277,3,2,0,1501,0,1,1,0,0,1,792,37
3,278,3,1,1,1501,1,1,2,0,0,0,1011,38
3,279,3,1,1,1501,0,1,1,0,0,1,508,39
3,280,3,1,1,1502,1,1,1,0,0,1,637,40
3,281,3,2,0,1502,1,1,1,0,0,1,521,41
3,282,3,2,0,1501,0,1,1,0,0,1,552,42
3,283,3,1,1,1501,0,1,1,0,0,1,622,43
3,284,3,2,0,1502,0,1,1,0,0,1,538,44
3,285,3,2,0,1501,0,1,1,0,0,1,528,45
3,286,3,1,1,1501,0,1,1,0,0,1,840,46
3,287,3,1,1,1502,0,1,0,0,0,0,756,47
3,288,3,1,1,1501,0,1,1,0,0,1,827,48
3,289,3,1,1,1501,1,1,1,0,0,1,747,49
3,290,3,1,1,1502,1,1,1,0,0,1,689,50
3,291,3,1,1,1501,1,1,0,0,0,0,624,51
3,292,3,1,1,1502,0,1,1,0,0,1,592,52
3,293,3,2,0,1502,0,1,1,0,0,1,913,53
3,294,3,2,0,1501,0,1,0,0,0,0,952,54
3,295,3,2,0,1501,1,1,1,0,0,1,734,55
3,296,3,1,1,1502,1,1,0,0,0,0,671,56
3,297,3,1,1,1501,0,1,1,0,0,1,645,57
3,298,3,2,0,1501,0,1,1,0,0,1,688,58
3,299,3,1,1,1501,1,1,1,0,0,1,586,59
3,300,3,2,0,1501,1,1,1,0,0,1,633,60
3,301,3,1,1,1501,1,1,1,0,0,1,712,61
3,302,3,2,0,1502,0,1,1,0,0,1,730,62
3,303,3,1,1,1501,1,1,0,0,0,0,777,63
3,304,3,2,0,1501,0,1,1,0,0,1,737,64
3,305,3,2,0,1501,1,1,2,0,0,0,1011,65
3,306,3,2,0,1501,0,1,1,0,0,1,862,66
3,307,3,1,1,1501,0,1,1,0,0,1,611,67
3,308,3,2,0,1501,1,1,1,0,0,1,639,68
3,309,3,2,0,1501,0,1,1,0,0,1,670,69
3,310,3,2,0,1501,1,1,1,0,0,1,825,70
3,311,3,1,1,1501,1,1,2,0,0,0,1012,71
3,312,3,2,0,1502,0,1,1,0,0,1,707,72
3,313,3,1,1,1501,1,1,1,0,0,1,563,73
3,314,3,1,1,1501,1,1,1,0,0,1,574,74
3,315,3,1,1,1501,0,1,0,0,0,0,636,75
3,316,3,2,0,1501,1,1,1,0,0,1,639,76
3,317,3,1,1,1501,0,1,1,0,0,1,663,77
3,318,3,1,1,1501,0,1,1,0,0,1,656,78
3,319,3,2,0,1501,0,1,1,0,0,1,610,79
3,320,3,2,0,1501,0,1,1,0,0,1,619,80
3,321,3,2,0,1501,0,1,1,0,0,1,592,81
3,322,3,2,0,1501,1,1,1,0,0,1,772,82
3,323,3,1,1,1502,0,1,0,0,0,0,581,83
3,324,3,2,0,1501,0,1,1,0,0,1,852,84
3,325,3,1,1,1502,1,1,1,0,0,1,806,85
3,326,3,2,0,1501,0,1,1,0,0,1,600,86
3,327,3,1,1,1501,0,1,1,0,0,1,685,87
3,328,3,2,0,1501,0,1,1,0,0,1,712,88
3,329,3,1,1,1501,1,1,1,0,0,1,574,89
3,330,3,1,1,1501,1,1,0,0,0,0,626,90
3,331,3,1,1,1501,0,1,1,0,0,1,650,91
3,332,3,1,1,1501,0,1,1,0,0,1,757,92
3,333,3,2,0,1502,1,1,1,0,0,1,624,93
3,334,3,2,0,1501,0,1,1,0,0,1,642,94
3,335,3,1,1,1501,0,1,1,0,0,1,712,95
3,336,3,2,0,1502,1,1,1,0,0,1,742,96
3,337,3,1,1,1501,1,1,1,0,0,1,943,97
3,338,3,1,1,1502,1,1,1,0,0,1,816,98
3,339,3,2,0,1501,1,1,1,0,0,1,965,99
3,340,3,1,1,1501,0,1,2,0,0,0,1011,100
3,341,3,2,0,1501,1,1,1,0,0,1,873,101
3,342,3,1,1,1502,1,1,1,0,0,1,675,102
3,343,3,2,0,1501,0,1,1,0,0,1,748,103
3,344,3,1,1,1501,0,1,1,0,0,1,612,104
3,345,3,2,0,1501,1,1,1,0,0,1,661,105
3,346,3,1,1,1501,1,1,1,0,0,1,637,106
3,347,3,1,1,1502,0,1,1,0,0,1,817,107
3,348,3,2,0,1501,1,1,1,0,0,1,661,108
3,349,3,2,0,1502,1,1,2,0,0,0,1011,109
3,350,3,1,1,1502,0,1,1,0,0,1,600,110
3,351,3,2,0,1501,0,1,1,0,0,1,561,111
3,352,3,1,1,1501,1,1,1,0,0,1,629,112
3,353,3,1,1,1502,0,1,1,0,0,1,843,113
3,354,3,2,0,1501,1,1,1,0,0,1,593,114
3,355,3,1,1,1501,1,1,1,0,0,1,634,115
3,356,3,2,0,1502,0,1,1,0,0,1,702,116
3,357,3,2,0,1501,1,1,1,0,0,1,645,117
3,358,3,1,1,1503,1,1,1,0,0,1,621,118
3,359,3,1,1,1501,0,1,1,0,0,1,641,119
3,360,3,1,1,1501,1,1,1,0,0,1,955,120
3,361,4,1,1,1501,0,2,1,0,0,1,616,1
3,362,4,2,0,1501,0,2,1,0,0,1,566,2
3,363,4,2,0,1501,1,2,0,1,0,1,708,3
3,364,4,1,1,1501,1,2,0,0,1,0,703,4
3,365,4,1,1,1501,1,2,0,1,0,1,678,5
3,366,4,1,1,1501,1,2,1,0,1,1,713,6
3,367,4,2,0,1501,1,2,0,0,0,0,849,7
3,368,4,1,1,1501,0,2,1,0,0,1,649,8
3,369,4,1,1,1501,0,2,1,0,0,1,898,9
3,370,4,1,1,1501,1,2,0,0,0,0,948,10
3,371,4,1,1,1501,0,2,0,1,0,1,647,11
3,372,4,1,1,1502,1,2,1,0,1,1,594,12
3,373,4,1,1,1501,0,2,0,1,0,1,715,13
3,374,4,1,1,1502,0,2,0,1,1,1,885,14
3,375,4,1,1,1501,1,2,1,0,1,1,755,15
3,376,4,2,0,1502,1,2,2,0,0,0,1012,16
3,377,4,2,0,1501,0,2,0,1,0,1,741,17
3,378,4,1,1,1501,1,2,1,0,1,1,775,18
3,379,4,2,0,1501,1,2,2,0,0,0,1011,19
3,380,4,2,0,1501,1,2,1,0,0,1,700,20
3,381,4,1,1,1501,1,2,2,0,0,0,1012,21
3,382,4,2,0,1501,0,2,1,0,0,1,595,22
3,383,4,1,1,1501,0,2,0,0,0,0,881,23
3,384,4,1,1,1501,0,2,2,0,0,0,1011,24
3,385,4,2,0,1501,1,2,1,0,0,1,942,25
3,386,4,1,1,1502,1,2,0,1,0,1,848,26
3,387,4,1,1,1501,1,2,0,0,1,0,879,27
3,388,4,1,1,1501,0,2,0,1,0,1,734,28
3,389,4,1,1,1501,1,2,0,0,1,0,832,29
3,390,4,2,0,1502,1,2,0,1,0,1,581,30
3,391,4,1,1,1501,0,2,1,0,1,1,687,31
3,392,4,1,1,1501,1,2,0,1,0,1,675,32
3,393,4,1,1,1502,1,2,0,0,1,0,835,33
3,394,4,2,0,1501,1,2,2,0,0,0,1011,34
3,395,4,1,1,1501,0,2,2,0,0,0,1011,35
3,396,4,1,1,1501,0,2,1,0,0,1,648,36
3,397,4,1,1,1502,0,2,1,0,0,1,624,37
3,398,4,2,0,1502,0,2,1,0,0,1,610,38
3,399,4,1,1,1502,1,2,1,0,0,1,720,39
3,400,4,1,1,1501,1,2,0,1,0,1,635,40
3,401,4,2,0,1501,0,2,0,1,1,1,821,41
3,402,4,2,0,1501,0,2,0,1,1,1,753,42
3,403,4,1,1,1501,0,2,1,0,1,1,653,43
3,404,4,2,0,1502,0,2,1,0,0,1,663,44
3,405,4,1,1,1501,1,2,0,1,0,1,741,45
3,406,4,2,0,1502,1,2,0,0,1,0,667,46
3,407,4,2,0,1501,1,2,1,0,0,1,627,47
3,408,4,2,0,1501,1,2,1,0,0,1,609,48
3,409,4,2,0,1501,0,2,0,1,0,1,560,49
3,410,4,1,1,1501,0,2,2,0,1,0,1011,50
3,411,4,1,1,1502,1,2,0,0,0,0,587,51
3,412,4,2,0,1501,0,2,1,0,0,1,595,52
3,413,4,2,0,1502,1,2,0,0,0,0,675,53
3,414,4,2,0,1502,1,2,1,0,0,1,545,54
3,415,4,2,0,1501,1,2,0,0,0,0,746,55
3,416,4,2,0,1501,1,2,0,1,0,1,972,56
3,417,4,1,1,1501,0,2,1,0,1,1,624,57
3,418,4,2,0,1501,0,2,1,0,0,1,698,58
3,419,4,1,1,1501,1,2,1,0,0,1,629,59
3,420,4,1,1,1501,1,2,0,1,0,1,717,60
3,421,4,1,1,1502,1,2,1,0,1,1,991,61
3,422,4,2,0,1501,1,2,2,0,0,0,1012,62
3,423,4,2,0,1501,1,2,0,0,0,0,785,63
3,424,4,2,0,1501,1,2,1,0,0,1,826,64
3,425,4,2,0,1501,0,2,1,0,0,1,755,65
3,426,4,2,0,1501,1,2,0,1,0,1,672,66
3,427,4,2,0,1501,1,2,1,0,1,1,753,67
3,428,4,1,1,1501,0,2,1,0,0,1,754,68
3,429,4,1,1,1501,0,2,1,0,0,1,636,69
3,430,4,1,1,1501,1,2,0,0,0,0,852,70
3,431,4,1,1,1501,1,2,1,0,0,1,716,71
3,432,4,1,1,1502,1,2,0,0,0,0,683,72
3,433,4,2,0,1501,1,2,1,0,0,1,824,73
3,434,4,1,1,1501,1,2,0,0,0,0,781,74
3,435,4,1,1,1501,0,2,0,0,0,0,772,75
3,436,4,2,0,1501,0,2,0,0,0,0,729,76
3,437,4,2,0,1502,1,2,1,0,0,1,640,77
3,438,4,1,1,1501,1,2,1,0,0,1,703,78
3,439,4,1,1,1502,0,2,1,0,0,1,622,79
3,440,4,1,1,1501,0,2,1,0,0,1,830,80
3,441,4,2,0,1501,1,2,2,0,0,0,1011,81
3,442,4,2,0,1502,1,2,0,1,0,1,1009,82
3,443,4,1,1,1501,1,2,0,0,1,0,857,83
3,444,4,2,0,1501,0,2,0,1,0,1,793,84
3,445,4,1,1,1502,0,2,0,1,1,1,921,85
3,446,4,2,0,1501,0,2,0,1,1,1,939,86
3,447,4,1,1,1501,0,2,1,0,1,1,711,87
3,448,4,2,0,1501,0,2,0,0,0,0,707,88
3,449,4,1,1,1502,1,2,1,0,0,1,755,89
3,450,4,1,1,1501,1,2,0,0,0,0,677,90
3,451,4,2,0,1501,1,2,1,0,0,1,674,91
3,452,4,1,1,1501,0,2,0,0,0,0,671,92
3,453,4,1,1,1501,1,2,0,1,0,1,703,93
3,454,4,2,0,1501,1,2,1,0,1,1,783,94
3,455,4,1,1,1502,0,2,1,0,0,1,530,95
3,456,4,2,0,1501,0,2,1,0,0,1,592,96
3,457,4,1,1,1501,0,2,0,1,0,1,549,97
3,458,4,2,0,1501,1,2,0,0,1,0,883,98
3,459,4,2,0,1502,0,2,1,0,0,1,757,99
3,460,4,1,1,1501,0,2,1,0,0,1,729,100
3,461,4,1,1,1502,1,2,0,1,0,1,657,101
3,462,4,1,1,1501,1,2,0,1,1,1,771,102
3,463,4,2,0,1501,1,2,0,0,1,0,761,103
3,464,4,2,0,1501,0,2,0,0,0,0,698,104
3,465,4,1,1,1501,1,2,0,0,0,0,641,105
3,466,4,1,1,1501,0,2,1,0,0,1,790,106
3,467,4,2,0,1501,0,2,2,0,0,0,1012,107
3,468,4,2,0,1501,1,2,1,0,0,1,696,108
3,469,4,1,1,1502,1,2,0,0,0,0,730,109
3,470,4,2,0,1501,0,2,2,0,0,0,1012,110
3,471,4,1,1,1501,0,2,1,0,0,1,707,111
3,472,4,2,0,1501,0,2,0,1,0,1,678,112
3,473,4,1,1,1502,0,2,1,0,1,1,635,113
3,474,4,2,0,1502,1,2,1,0,0,1,648,114
3,475,4,2,0,1501,0,2,0,0,0,0,986,115
3,476,4,2,0,1501,0,2,0,0,0,0,834,116
3,477,4,1,1,1501,0,2,1,0,0,1,656,117
3,478,4,1,1,1501,0,2,0,0,0,0,772,118
3,479,4,1,1,1501,1,2,0,0,0,0,594,119
3,480,4,1,1,1501,0,2,1,0,0,1,588,120
3,481,5,2,0,1502,1,1,1,0,0,1,743,1
3,482,5,1,1,1501,1,1,1,0,0,1,646,2
3,483,5,1,1,1501,0,1,1,0,0,1,587,3
3,484,5,1,1,1501,1,1,1,0,0,1,762,4
3,485,5,1,1,1501,1,1,1,0,0,1,892,5
3,486,5,1,1,1502,1,1,1,0,0,1,876,6
3,487,5,2,0,1501,1,1,1,0,0,1,724,7
3,488,5,2,0,1501,1,1,1,0,0,1,673,8
3,489,5,1,1,1501,1,1,1,0,0,1,950,9
3,490,5,1,1,1502,0,1,1,0,0,1,612,10
3,491,5,2,0,1501,0,1,1,0,0,1,764,11
3,492,5,2,0,1501,1,1,1,0,0,1,864,12
3,493,5,2,0,1501,0,1,1,0,0,1,719,13
3,494,5,1,1,1501,0,1,1,0,0,1,766,14
3,495,5,1,1,1501,0,1,1,0,0,1,658,15
3,496,5,1,1,1501,0,1,1,0,0,1,991,16
3,497,5,1,1,1501,1,1,1,0,0,1,793,17
3,498,5,1,1,1501,1,1,2,0,0,0,1011,18
3,499,5,2,0,1502,1,1,1,0,0,1,818,19
3,500,5,1,1,1501,0,1,1,0,0,1,698,20
3,501,5,1,1,1501,1,1,1,0,0,1,671,21
3,502,5,2,0,1501,1,1,1,0,0,1,820,22
3,503,5,2,0,1501,1,1,2,0,0,0,1012,23
3,504,5,2,0,1501,0,1,1,0,0,1,646,24
3,505,5,2,0,1501,0,1,1,0,0,1,628,25
3,506,5,2,0,1501,1,1,1,0,0,1,834,26
3,507,5,2,0,1501,0,1,1,0,0,1,753,27
3,508,5,2,0,1501,1,1,1,0,0,1,785,28
3,509,5,1,1,1501,0,1,1,0,0,1,956,29
3,510,5,1,1,1501,0,1,1,0,0,1,885,30
3,511,5,2,0,1501,0,1,1,0,0,1,720,31
3,512,5,1,1,1502,0,1,1,0,0,1,739,32
3,513,5,2,0,1501,0,1,1,0,0,1,679,33
3,514,5,1,1,1501,0,1,0,0,0,0,772,34
3,515,5,2,0,1501,1,1,1,0,0,1,647,35
3,516,5,1,1,1501,0,1,1,0,0,1,911,36
3,517,5,2,0,1501,0,1,1,0,0,1,655,37
3,518,5,2,0,1501,1,1,1,0,0,1,756,38
3,519,5,1,1,1502,0,1,1,0,0,1,804,39
3,520,5,1,1,1502,1,1,1,0,0,1,726,40
3,521,5,2,0,1501,1,1,2,0,0,0,1011,41
3,522,5,1,1,1501,1,1,1,0,0,1,859,42
3,523,5,1,1,1501,1,1,1,0,0,1,698,43
3,524,5,1,1,1502,0,1,1,0,0,1,690,44
3,525,5,2,0,1501,1,1,1,0,0,1,696,45
3,526,5,2,0,1501,0,1,1,0,0,1,689,46
3,527,5,1,1,1501,1,1,1,0,0,1,671,47
3,528,5,2,0,1502,1,1,1,0,0,1,768,48
3,529,5,2,0,1501,1,1,0,0,0,0,838,49
3,530,5,2,0,1502,0,1,1,0,0,1,708,50
3,531,5,2,0,1501,1,1,1,0,0,1,728,51
3,532,5,1,1,1501,0,1,1,0,0,1,666,52
3,533,5,2,0,1501,0,1,1,0,0,1,663,53
3,534,5,2,0,1501,0,1,1,0,0,1,706,54
3,535,5,2,0,1501,1,1,1,0,0,1,766,55
3,536,5,1,1,1501,0,1,0,0,0,0,865,56
3,537,5,2,0,1501,0,1,1,0,0,1,719,57
3,538,5,1,1,1501,0,1,2,0,0,0,1012,58
3,539,5,1,1,1501,1,1,1,0,0,1,633,59
3,540,5,2,0,1501,0,1,1,0,0,1,603,60
3,541,5,1,1,1501,1,1,0,0,0,0,667,61
3,542,5,1,1,1501,1,1,1,0,0,1,666,62
3,543,5,2,0,1502,0,1,1,0,0,1,888,63
3,544,5,1,1,1501,1,1,1,0,0,1,646,64
3,545,5,2,0,1501,1,1,0,0,0,0,653,65
3,546,5,2,0,1501,1,1,1,0,0,1,702,66
3,547,5,1,1,1501,0,1,1,0,0,1,546,67
3,548,5,1,1,1501,0,1,1,0,0,1,624,68
3,549,5,2,0,1501,1,1,1,0,0,1,760,69
3,550,5,1,1,1501,0,1,1,0,0,1,757,70
3,551,5,2,0,1501,0,1,1,0,0,1,697,71
3,552,5,1,1,1501,0,1,1,0,0,1,656,72
3,553,5,2,0,1502,1,1,1,0,0,1,924,73
3,554,5,1,1,1501,0,1,1,0,0,1,626,74
3,555,5,1,1,1502,0,1,1,0,0,1,670,75
3,556,5,2,0,1501,0,1,1,0,0,1,632,76
3,557,5,1,1,1501,0,1,1,0,0,1,628,77
3,558,5,2,0,1501,1,1,1,0,0,1,564,78
3,559,5,2,0,1502,0,1,1,0,0,1,933,79
3,560,5,1,1,1502,1,1,1,0,0,1,587,80
3,561,5,2,0,1501,1,1,1,0,0,1,582,81
3,562,5,2,0,1501,1,1,1,0,0,1,718,82
3,563,5,2,0,1501,0,1,0,0,0,0,599,83
3,564,5,1,1,1502,1,1,2,0,0,0,1011,84
3,565,5,1,1,1501,0,1,1,0,0,1,725,85
3,566,5,1,1,1501,0,1,1,0,0,1,641,86
3,567,5,2,0,1501,1,1,1,0,0,1,540,87
3,568,5,1,1,1501,1,1,1,0,0,1,611,88
3,569,5,1,1,1501,0,1,1,0,0,1,536,89
3,570,5,2,0,1501,0,1,0,0,0,0,544,90
3,571,5,2,0,1501,0,1,1,0,0,1,832,91
3,572,5,2,0,1502,0,1,1,0,0,1,656,92
3,573,5,2,0,1501,1,1,1,0,0,1,604,93
3,574,5,2,0,1501,1,1,0,0,0,0,615,94
3,575,5,1,1,1501,0,1,1,0,0,1,571,95
3,576,5,2,0,1501,1,1,1,0,0,1,598,96
3,577,5,1,1,1501,0,1,1,0,0,1,577,97
3,578,5,2,0,1502,1,1,1,0,0,1,572,98
3,579,5,2,0,1501,1,1,1,0,0,1,548,99
3,580,5,1,1,1502,1,1,1,0,0,1,621,100
3,581,5,1,1,1501,1,1,1,0,0,1,569,101
3,582,5,2,0,1501,0,1,1,0,0,1,642,102
3,583,5,1,1,1501,1,1,1,0,0,1,664,103
3,584,5,2,0,1501,0,1,1,0,0,1,707,104
3,585,5,2,0,1501,0,1,1,0,0,1,805,105
3,586,5,2,0,1501,0,1,1,0,0,1,649,106
3,587,5,1,1,1502,0,1,2,0,0,0,1011,107
3,588,5,1,1,1502,0,1,1,0,0,1,582,108
3,589,5,1,1,1502,0,1,1,0,0,1,650,109
3,590,5,1,1,1501,1,1,1,0,0,1,628,110
3,591,5,2,0,1501,0,1,0,0,0,0,640,111
3,592,5,2,0,1501,0,1,0,0,0,0,747,112
3,593,5,1,1,1501,0,1,1,0,0,1,930,113
3,594,5,2,0,1501,1,1,1,0,0,1,641,114
3,595,5,1,1,1501,1,1,1,0,0,1,647,115
3,596,5,1,1,1501,1,1,1,0,0,1,1008,116
3,597,5,2,0,1501,0,1,1,0,0,1,652,117
3,598,5,2,0,1501,0,1,1,0,0,1,713,118
3,599,5,1,1,1502,0,1,1,0,0,1,808,119
3,600,5,1,1,1502,0,1,2,0,0,0,1011,120
3,601,6,2,0,1501,0,3,1,0,0,1,681,1
3,602,6,2,0,1501,0,3,1,0,0,1,618,2
3,603,6,1,1,1501,1,3,1,0,0,1,676,3
3,604,6,1,1,1501,0,3,0,0,0,0,770,4
3,605,6,2,0,1501,0,3,1,0,0,1,667,5
3,606,6,1,1,1501,0,3,1,0,0,1,701,6
3,607,6,2,0,1501,0,3,1,0,0,1,807,7
3,608,6,1,1,1501,1,3,1,0,0,1,693,8
3,609,6,1,1,1501,0,3,1,0,0,1,805,9
3,610,6,2,0,1501,1,3,2,0,0,0,1011,10
3,611,6,1,1,1501,0,3,1,0,0,1,770,11
3,612,6,1,1,1502,1,3,0,0,0,0,781,12
3,613,6,2,0,1501,0,3,0,0,0,0,748,13
3,614,6,2,0,1501,1,3,1,0,0,1,801,14
3,615,6,1,1,1501,0,3,1,0,0,1,683,15
3,616,6,2,0,1501,1,3,1,0,0,1,722,16
3,617,6,1,1,1501,0,3,1,0,0,1,650,17
3,618,6,2,0,1502,1,3,0,1,0,1,639,18
3,619,6,1,1,1501,0,3,1,0,1,1,837,19
3,620,6,1,1,1502,1,3,0,1,0,1,883,20
3,621,6,1,1,1501,0,3,1,0,1,1,766,21
3,622,6,1,1,1501,1,3,0,0,0,0,798,22
3,623,6,2,0,1501,1,3,2,0,0,0,1011,23
3,624,6,2,0,1501,1,3,1,0,0,1,784,24
3,625,6,2,0,1501,1,3,2,0,0,0,1011,25
3,626,6,1,1,1501,1,3,1,0,0,1,743,26
3,627,6,1,1,1501,0,3,1,0,0,1,806,27
3,628,6,2,0,1501,1,3,0,1,0,1,631,28
3,629,6,2,0,1501,1,3,0,0,1,0,795,29
3,630,6,2,0,1501,0,3,0,0,0,0,838,30
3,631,6,2,0,1502,0,3,1,0,0,1,644,31
3,632,6,1,1,1501,0,3,1,0,0,1,706,32
3,633,6,1,1,1501,1,3,0,0,0,0,790,33
3,634,6,2,0,1501,1,3,1,0,0,1,629,34
3,635,6,1,1,1502,1,3,0,0,0,0,774,35
3,636,6,1,1,1501,1,3,1,0,0,1,556,36
3,637,6,2,0,1501,0,3,0,1,0,1,687,37
3,638,6,1,1,1501,0,3,2,0,1,0,1011,38
3,639,6,1,1,1501,0,3,0,1,0,1,587,39
3,640,6,2,0,1501,0,3,1,0,1,1,737,40
3,641,6,1,1,1501,0,3,1,0,0,1,655,41
3,642,6,2,0,1502,0,3,0,1,0,1,668,42
3,643,6,1,1,1501,1,3,0,1,1,1,683,43
3,644,6,1,1,1501,1,3,0,1,1,1,657,44
3,645,6,1,1,1502,0,3,0,0,1,0,798,45
3,646,6,1,1,1501,1,3,0,0,0,0,852,46
3,647,6,1,1,1501,0,3,1,0,0,1,651,47
3,648,6,1,1,1501,0,3,1,0,0,1,658,48
3,649,6,1,1,1501,0,3,1,0,0,1,642,49
3,650,6,2,0,1501,1,3,0,0,0,0,692,50
3,651,6,1,1,1501,1,3,0,0,0,0,592,51
3,652,6,1,1,1501,1,3,0,1,0,1,566,52
3,653,6,2,0,1502,1,3,1,0,1,1,820,53
3,654,6,1,1,1501,0,3,1,0,0,1,660,54
3,655,6,2,0,1501,0,3,0,1,0,1,809,55
3,656,6,2,0,1501,0,3,1,0,1,1,826,56
3,657,6,1,1,1502,0,3,0,1,0,1,703,57
3,658,6,1,1,1502,1,3,2,0,1,0,1011,58
3,659,6,2,0,1501,0,3,1,0,0,1,832,59
3,660,6,2,0,1501,0,3,1,0,0,1,765,60
3,661,6,1,1,1501,1,3,1,0,0,1,790,61
3,662,6,2,0,1501,0,3,1,0,0,1,766,62
3,663,6,1,1,1502,0,3,1,0,0,1,716,63
3,664,6,1,1,1501,1,3,0,1,0,1,747,64
3,665,6,1,1,1501,1,3,0,1,1,1,719,65
3,666,6,1,1,1502,1,3,1,0,1,1,572,66
3,667,6,1,1,1501,0,3,1,0,0,1,871,67
3,668,6,2,0,1501,0,3,0,0,0,0,903,68
3,669,6,2,0,1501,0,3,1,0,0,1,719,69
3,670,6,2,0,1501,0,3,0,1,0,1,693,70
3,671,6,2,0,1501,0,3,0,1,1,1,601,71
3,672,6,2,0,1502,0,3,1,0,1,1,972,72
3,673,6,1,1,1501,1,3,0,1,0,1,732,73
3,674,6,1,1,1501,0,3,2,0,1,0,1012,74
3,675,6,1,1,1501,0,3,1,0,0,1,715,75
3,676,6,2,0,1501,1,3,0,1,0,1,607,76
3,677,6,1,1,1501,0,3,2,0,1,0,1012,77
3,678,6,2,0,1501,0,3,1,0,0,1,597,78
3,679,6,2,0,1502,0,3,1,0,0,1,620,79
3,680,6,2,0,1501,1,3,0,1,0,1,703,80
3,681,6,1,1,1501,1,3,0,1,1,1,708,81
3,682,6,2,0,1501,1,3,0,0,1,0,655,82
3,683,6,2,0,1502,0,3,0,0,0,0,535,83
3,684,6,2,0,1502,0,3,1,0,0,1,617,84
3,685,6,1,1,1501,1,3,1,0,0,1,696,85
3,686,6,1,1,1501,1,3,0,0,0,0,701,86
3,687,6,2,0,1501,0,3,0,0,0,0,608,87
3,688,6,2,0,1502,0,3,0,0,0,0,855,88
3,689,6,1,1,1501,0,3,1,0,0,1,655,89
3,690,6,2,0,1501,0,3,1,0,0,1,714,90
3,691,6,1,1,1502,1,3,1,0,0,1,784,91
3,692,6,1,1,1501,0,3,1,0,0,1,726,92
3,693,6,1,1,1502,1,3,1,0,0,1,762,93
3,694,6,2,0,1501,1,3,0,0,0,0,714,94
3,695,6,2,0,1501,0,3,0,1,0,1,672,95
3,696,6,1,1,1501,0,3,0,1,1,1,687,96
3,697,6,2,0,1501,0,3,1,0,1,1,894,97
3,698,6,1,1,1501,0,3,1,0,0,1,709,98
3,699,6,2,0,1501,1,3,1,0,0,1,707,99
3,700,6,2,0,1501,0,3,1,0,0,1,720,100
3,701,6,1,1,1502,0,3,1,0,0,1,750,101
3,702,6,2,0,1501,0,3,0,0,0,0,659,102
3,703,6,1,1,1501,0,3,0,1,0,1,683,103
3,704,6,1,1,1501,1,3,1,0,1,1,1008,104
3,705,6,2,0,1501,1,3,2,0,0,0,1012,105
3,706,6,2,0,1501,0,3,1,0,0,1,624,106
3,707,6,1,1,1501,1,3,0,1,0,1,871,107
3,708,6,1,1,1501,1,3,1,0,1,1,743,108
3,709,6,2,0,1501,1,3,0,1,0,1,808,109
3,710,6,2,0,1502,1,3,1,0,1,1,830,110
3,711,6,2,0,1502,0,3,0,1,0,1,781,111
3,712,6,1,1,1501,1,3,2,0,1,0,1012,112
3,713,6,1,1,1502,1,3,0,0,0,0,516,113
3,714,6,1,1,1501,0,3,1,0,0,1,560,114
3,715,6,2,0,1502,1,3,0,1,0,1,571,115
3,716,6,2,0,1501,0,3,1,0,1,1,384,116
3,717,6,2,0,1501,0,3,0,1,0,1,702,117
3,718,6,1,1,1501,1,3,0,1,1,1,591,118
3,719,6,1,1,1501,0,3,1,0,1,1,628,119
3,720,6,1,1,1501,1,3,0,0,0,0,763,120
3,721,7,2,0,1502,0,2,1,0,0,1,892,1
3,722,7,2,0,1502,1,2,1,0,0,1,611,2
3,723,7,1,1,1501,0,2,1,0,0,1,879,3
3,724,7,2,0,1501,1,2,1,0,0,1,680,4
3,725,7,1,1,1501,1,2,0,0,0,0,641,5
3,726,7,1,1,1502,0,2,1,0,0,1,714,6
3,727,7,2,0,1501,1,2,0,0,0,0,692,7
3,728,7,2,0,1501,1,2,0,1,0,1,696,8
3,729,7,1,1,1502,0,2,1,0,1,1,590,9
3,730,7,2,0,1501,1,2,0,0,0,0,672,10
3,731,7,1,1,1501,0,2,1,0,0,1,792,11
3,732,7,1,1,1501,1,2,1,0,0,1,753,12
3,733,7,2,0,1502,0,2,0,0,0,0,725,13
3,734,7,2,0,1502,0,2,0,1,0,1,669,14
3,735,7,1,1,1501,1,2,0,0,1,0,680,15
3,736,7,1,1,1501,0,2,1,0,0,1,770,16
3,737,7,1,1,1501,0,2,1,0,0,1,662,17
3,738,7,1,1,1502,1,2,0,0,0,0,632,18
3,739,7,2,0,1501,1,2,2,0,0,0,1011,19
3,740,7,1,1,1501,0,2,1,0,0,1,837,20
3,741,7,2,0,1501,0,2,0,1,0,1,824,21
3,742,7,2,0,1502,1,2,1,0,1,1,699,22
3,743,7,2,0,1501,0,2,1,0,0,1,806,23
3,744,7,2,0,1501,1,2,1,0,0,1,850,24
3,745,7,2,0,1502,0,2,1,0,0,1,649,25
3,746,7,2,0,1502,0,2,2,0,0,0,1011,26
3,747,7,1,1,1501,0,2,0,1,0,1,675,27
3,748,7,2,0,1501,0,2,1,0,1,1,683,28
3,749,7,1,1,1501,0,2,1,0,0,1,856,29
3,750,7,2,0,1502,0,2,2,0,0,0,1011,30
3,751,7,1,1,1501,0,2,1,0,0,1,691,31
3,752,7,2,0,1502,1,2,1,0,0,1,922,32
3,753,7,2,0,1501,0,2,1,0,0,1,773,33
3,754,7,2,0,1501,1,2,0,0,0,0,762,34
3,755,7,1,1,1501,0,2,1,0,0,1,804,35
3,756,7,2,0,1501,0,2,1,0,0,1,884,36
3,757,7,2,0,1501,0,2,1,0,0,1,834,37
3,758,7,2,0,1501,0,2,1,0,0,1,713,38
3,759,7,2,0,1501,0,2,1,0,0,1,617,39
3,760,7,2,0,1501,0,2,1,0,0,1,624,40
3,761,7,2,0,1501,1,2,0,1,0,1,654,41
3,762,7,1,1,1501,1,2,0,1,1,1,962,42
3,763,7,1,1,1501,0,2,0,1,1,1,699,43
3,764,7,2,0,1502,1,2,0,1,1,1,798,44
3,765,7,2,0,1501,1,2,0,0,1,0,734,45
3,766,7,2,0,1501,1,2,0,0,0,0,715,46
3,767,7,1,1,1502,1,2,0,0,0,0,889,47
3,768,7,1,1,1501,0,2,0,1,0,1,848,48
3,769,7,2,0,1501,1,2,1,0,1,1,786,49
3,770,7,2,0,1501,0,2,1,0,0,1,687,50
3,771,7,2,0,1501,0,2,1,0,0,1,707,51
3,772,7,2,0,1501,1,2,0,1,0,1,920,52
3,773,7,2,0,1501,0,2,0,1,1,1,695,53
3,774,7,2,0,1501,1,2,0,1,1,1,771,54
3,775,7,1,1,1501,0,2,1,0,1,1,705,55
3,776,7,2,0,1501,1,2,0,1,0,1,737,56
3,777,7,1,1,1501,1,2,0,0,1,0,927,57
3,778,7,2,0,1501,1,2,2,0,0,0,1011,58
3,779,7,2,0,1501,1,2,0,0,0,0,914,59
3,780,7,2,0,1501,0,2,1,0,0,1,979,60
3,781,7,2,0,1501,0,2,1,0,0,1,787,61
3,782,7,2,0,1501,0,2,2,0,0,0,1011,62
3,783,7,1,1,1502,1,2,0,1,0,1,796,63
3,784,7,1,1,1502,1,2,0,0,1,0,680,64
3,785,7,2,0,1501,0,2,1,0,0,1,685,65
3,786,7,1,1,1501,0,2,1,0,0,1,684,66
3,787,7,2,0,1501,1,2,2,0,0,0,1011,67
3,788,7,1,1,1501,1,2,0,0,0,0,769,68
3,789,7,1,1,1501,0,2,1,0,0,1,668,69
3,790,7,1,1,1501,1,2,1,0,0,1,719,70
3,791,7,2,0,1501,1,2,0,0,0,0,743,71
3,792,7,1,1,1501,0,2,1,0,0,1,642,72
3,793,7,1,1,1502,0,2,0,0,0,0,760,73
3,794,7,1,1,1502,1,2,0,0,0,0,925,74
3,795,7,2,0,1501,1,2,1,0,0,1,647,75
3,796,7,2,0,1501,1,2,0,1,0,1,739,76
3,797,7,2,0,1501,1,2,1,0,1,1,623,77
3,798,7,2,0,1501,1,2,0,0,0,0,834,78
3,799,7,1,1,1501,1,2,0,0,0,0,858,79
3,800,7,1,1,1502,0,2,1,0,0,1,634,80
3,801,7,1,1,1501,0,2,1,0,0,1,631,81
3,802,7,1,1,1502,0,2,0,1,0,1,732,82
3,803,7,2,0,1501,0,2,1,0,1,1,910,83
3,804,7,2,0,1501,1,2,1,0,0,1,628,84
3,805,7,2,0,1501,1,2,0,1,0,1,654,85
3,806,7,1,1,1502,1,2,1,0,1,1,650,86
3,807,7,2,0,1501,1,2,1,0,0,1,863,87
3,808,7,1,1,1501,1,2,0,0,0,0,678,88
3,809,7,1,1,1501,0,2,0,1,0,1,747,89
3,810,7,2,0,1501,1,2,0,1,1,1,883,90
3,811,7,1,1,1501,1,2,0,0,1,0,664,91
3,812,7,1,1,1501,1,2,1,0,0,1,640,92
3,813,7,1,1,1501,0,2,1,0,0,1,643,93
3,814,7,1,1,1501,0,2,1,0,0,1,982,94
3,815,7,1,1,1501,0,2,1,0,0,1,784,95
3,816,7,2,0,1501,1,2,0,1,0,1,817,96
3,817,7,2,0,1501,0,2,1,0,1,1,803,97
3,818,7,2,0,1502,1,2,1,0,0,1,857,98
3,819,7,2,0,1501,1,2,0,1,0,1,845,99
3,820,7,1,1,1501,0,2,1,0,1,1,633,100
3,821,7,2,0,1502,1,2,0,0,0,0,735,101
3,822,7,1,1,1502,1,2,0,1,0,1,878,102
3,823,7,2,0,1501,0,2,1,0,1,1,623,103
3,824,7,1,1,1501,0,2,0,1,0,1,988,104
3,825,7,2,0,1501,0,2,1,0,1,1,903,105
3,826,7,1,1,1502,0,2,1,0,0,1,653,106
3,827,7,2,0,1501,0,2,1,0,0,1,689,107
3,828,7,1,1,1501,1,2,1,0,0,1,587,108
3,829,7,2,0,1501,1,2,0,0,0,0,868,109
3,830,7,1,1,1501,0,2,0,1,0,1,838,110
3,831,7,2,0,1501,0,2,0,1,1,1,732,111
3,832,7,1,1,1501,1,2,1,0,1,1,625,112
3,833,7,1,1,1501,0,2,1,0,0,1,938,113
3,834,7,2,0,1501,1,2,1,0,0,1,677,114
3,835,7,1,1,1502,0,2,0,0,0,0,742,115
3,836,7,2,0,1501,0,2,0,1,0,1,671,116
3,837,7,2,0,1501,1,2,0,0,1,0,819,117
3,838,7,1,1,1501,1,2,0,1,0,1,635,118
3,839,7,1,1,1501,1,2,0,0,1,0,669,119
3,840,7,1,1,1501,1,2,1,0,0,1,643,120
3,841,8,2,0,1501,0,3,1,0,0,1,737,1
3,842,8,2,0,1502,0,3,1,0,0,1,628,2
3,843,8,2,0,1501,0,3,1,0,0,1,794,3
3,844,8,1,1,1502,0,3,2,0,0,0,1011,4
3,845,8,2,0,1501,0,3,0,1,0,1,577,5
3,846,8,1,1,1501,1,3,0,0,1,0,846,6
3,847,8,2,0,1502,1,3,0,1,0,1,539,7
3,848,8,1,1,1501,1,3,0,0,1,0,710,8
3,849,8,1,1,1501,0,3,1,0,0,1,701,9
3,850,8,1,1,1501,1,3,2,0,0,0,1011,10
3,851,8,2,0,1502,0,3,1,0,0,1,649,11
3,852,8,2,0,1501,1,3,0,0,0,0,704,12
3,853,8,2,0,1502,1,3,1,0,0,1,710,13
3,854,8,2,0,1502,1,3,0,0,0,0,795,14
3,855,8,2,0,1501,1,3,1,0,0,1,807,15
3,856,8,1,1,1501,0,3,0,1,0,1,614,16
3,857,8,1,1,1501,0,3,1,0,1,1,672,17
3,858,8,2,0,1501,1,3,2,0,0,0,1011,18
3,859,8,2,0,1501,1,3,0,1,0,1,681,19
3,860,8,1,1,1501,1,3,0,0,1,0,694,20
3,861,8,1,1,1503,1,3,0,1,0,1,805,21
3,862,8,2,0,1501,0,3,0,1,1,1,742,22
3,863,8,1,1,1501,0,3,0,1,1,1,812,23
3,864,8,2,0,1501,0,3,0,1,1,1,665,24
3,865,8,1,1,1501,1,3,1,0,1,1,654,25
3,866,8,1,1,1502,1,3,0,1,0,1,592,26
3,867,8,2,0,1501,1,3,1,0,1,1,558,27
3,868,8,2,0,1502,1,3,0,0,0,0,720,28
3,869,8,1,1,1501,0,3,1,0,0,1,649,29
3,870,8,1,1,1501,1,3,0,0,0,0,735,30
3,871,8,2,0,1502,1,3,0,1,0,1,767,31
3,872,8,1,1,1501,1,3,0,0,1,0,602,32
3,873,8,2,0,1501,0,3,1,0,0,1,681,33
3,874,8,2,0,1501,1,3,0,0,0,0,746,34
3,875,8,2,0,1501,0,3,1,0,0,1,610,35
3,876,8,2,0,1501,0,3,0,0,0,0,681,36
3,877,8,1,1,1501,0,3,1,0,0,1,637,37
3,878,8,2,0,1502,1,3,0,1,0,1,753,38
3,879,8,2,0,1501,1,3,0,0,1,0,681,39
3,880,8,2,0,1501,1,3,0,0,0,0,753,40
3,881,8,2,0,1501,1,3,1,0,0,1,541,41
3,882,8,1,1,1501,0,3,0,1,0,1,835,42
3,883,8,1,1,1501,1,3,0,1,1,1,552,43
3,884,8,2,0,1501,1,3,1,0,1,1,828,44
3,885,8,2,0,1502,0,3,0,1,0,1,1002,45
3,886,8,2,0,1502,1,3,2,0,1,0,1011,46
3,887,8,1,1,1501,0,3,1,0,0,1,582,47
3,888,8,1,1,1501,1,3,0,1,0,1,654,48
3,889,8,2,0,1502,0,3,1,0,1,1,781,49
3,890,8,2,0,1501,0,3,1,0,0,1,631,50
3,891,8,2,0,1501,1,3,1,0,0,1,848,51
3,892,8,2,0,1501,0,3,1,0,0,1,712,52
3,893,8,1,1,1501,1,3,0,1,0,1,740,53
3,894,8,1,1,1501,1,3,0,1,1,1,905,54
3,895,8,1,1,1501,0,3,0,1,1,1,676,55
3,896,8,1,1,1501,1,3,0,0,1,0,727,56
3,897,8,1,1,1501,1,3,1,0,0,1,588,57
3,898,8,1,1,1501,0,3,1,0,0,1,582,58
3,899,8,2,0,1501,1,3,2,0,0,0,1011,59
3,900,8,1,1,1501,0,3,1,0,0,1,590,60
3,901,8,2,0,1501,1,3,0,0,0,0,766,61
3,902,8,1,1,1502,1,3,0,0,0,0,697,62
3,903,8,2,0,1501,0,3,1,0,0,1,799,63
3,904,8,2,0,1501,1,3,0,1,0,1,463,64
3,905,8,1,1,1502,1,3,0,0,1,0,661,65
3,906,8,1,1,1501,0,3,1,0,0,1,610,66
3,907,8,1,1,1501,1,3,1,0,0,1,716,67
3,908,8,1,1,1501,1,3,1,0,0,1,910,68
3,909,8,1,1,1501,0,3,1,0,0,1,584,69
3,910,8,1,1,1501,0,3,0,1,0,1,526,70
3,911,8,1,1,1501,0,3,1,0,1,1,635,71
3,912,8,1,1,1501,0,3,1,0,0,1,535,72
3,913,8,2,0,1501,1,3,0,1,0,1,766,73
3,914,8,2,0,1501,0,3,1,0,1,1,657,74
3,915,8,2,0,1501,0,3,0,1,0,1,658,75
3,916,8,2,0,1501,1,3,1,0,1,1,731,76
3,917,8,2,0,1502,0,3,0,1,0,1,616,77
3,918,8,1,1,1501,0,3,0,1,1,1,594,78
3,919,8,1,1,1501,0,3,1,0,1,1,759,79
3,920,8,1,1,1502,1,3,0,0,0,0,813,80
3,921,8,2,0,1501,0,3,0,1,0,1,793,81
3,922,8,1,1,1501,1,3,1,0,1,1,658,82
3,923,8,2,0,1501,0,3,0,1,0,1,788,83
3,924,8,2,0,1501,0,3,1,0,1,1,832,84
3,925,8,2,0,1501,0,3,1,0,0,1,744,85
3,926,8,1,1,1501,1,3,1,0,0,1,817,86
3,927,8,1,1,1502,0,3,0,1,0,1,673,87
3,928,8,1,1,1501,1,3,0,0,1,0,727,88
3,929,8,1,1,1501,0,3,1,0,0,1,736,89
3,930,8,2,0,1502,0,3,1,0,0,1,686,90
3,931,8,1,1,1501,1,3,0,1,0,1,700,91
3,932,8,2,0,1501,0,3,1,0,1,1,725,92
3,933,8,2,0,1501,1,3,1,0,0,1,897,93
3,934,8,1,1,1501,1,3,1,0,0,1,621,94
3,935,8,2,0,1501,0,3,1,0,0,1,763,95
3,936,8,2,0,1501,0,3,0,1,0,1,629,96
3,937,8,1,1,1502,0,3,1,0,1,1,834,97
3,938,8,2,0,1501,1,3,1,0,0,1,865,98
3,939,8,2,0,1502,1,3,0,1,0,1,709,99
3,940,8,1,1,1501,1,3,0,0,1,0,671,100
3,941,8,1,1,1501,0,3,0,1,0,1,653,101
3,942,8,1,1,1501,1,3,2,0,1,0,1011,102
3,943,8,1,1,1501,1,3,0,0,0,0,694,103
3,944,8,1,1,1501,0,3,1,0,0,1,623,104
3,945,8,2,0,1501,0,3,1,0,0,1,759,105
3,946,8,2,0,1501,0,3,1,0,0,1,657,106
3,947,8,2,0,1501,1,3,1,0,0,1,583,107
3,948,8,1,1,1502,0,3,1,0,0,1,582,108
3,949,8,1,1,1501,0,3,1,0,0,1,1004,109
3,950,8,2,0,1501,0,3,1,0,0,1,817,110
3,951,8,2,0,1501,1,3,1,0,0,1,682,111
3,952,8,2,0,1501,0,3,1,0,0,1,612,112
3,953,8,1,1,1502,1,3,1,0,0,1,632,113
3,954,8,1,1,1502,1,3,1,0,0,1,645,114
3,955,8,1,1,1501,1,3,0,0,0,0,866,115
3,956,8,2,0,1501,0,3,0,0,0,0,938,116
3,957,8,2,0,1501,1,3,0,1,0,1,716,117
3,958,8,2,0,1501,1,3,0,0,1,0,844,118
3,959,8,1,1,1502,0,3,0,0,0,0,878,119
3,960,8,2,0,1501,0,3,1,0,0,1,743,120
3,961,9,2,0,1501,0,2,0,1,0,1,934,1
3,962,9,2,0,1501,1,2,1,0,1,1,711,2
3,963,9,2,0,1501,0,2,1,0,0,1,805,3
3,964,9,1,1,1501,1,2,1,0,0,1,742,4
3,965,9,2,0,1502,1,2,2,0,0,0,1011,5
3,966,9,2,0,1502,0,2,0,1,0,1,642,6
3,967,9,2,0,1501,0,2,0,1,1,1,676,7
3,968,9,2,0,1502,0,2,0,1,1,1,633,8
3,969,9,2,0,1501,0,2,1,0,1,1,654,9
3,970,9,1,1,1501,0,2,1,0,0,1,703,10
3,971,9,2,0,1502,0,2,0,0,0,0,602,11
3,972,9,1,1,1501,0,2,0,1,0,1,579,12
3,973,9,2,0,1502,0,2,0,1,1,1,804,13
3,974,9,2,0,1501,0,2,0,0,1,0,692,14
3,975,9,1,1,1501,1,2,0,1,0,1,728,15
3,976,9,1,1,1501,0,2,1,0,1,1,711,16
3,977,9,1,1,1502,0,2,1,0,0,1,720,17
3,978,9,1,1,1502,1,2,1,0,0,1,818,18
3,979,9,2,0,1501,0,2,1,0,0,1,874,19
3,980,9,1,1,1501,1,2,0,1,0,1,783,20
3,981,9,2,0,1501,0,2,0,1,1,1,615,21
3,982,9,1,1,1501,0,2,1,0,1,1,644,22
3,983,9,1,1,1501,0,2,1,0,0,1,767,23
3,984,9,2,0,1501,0,2,1,0,0,1,627,24
3,985,9,2,0,1501,0,2,1,0,0,1,919,25
3,986,9,2,0,1502,1,2,1,0,0,1,611,26
3,987,9,1,1,1501,0,2,1,0,0,1,758,27
3,988,9,1,1,1502,0,2,0,1,0,1,941,28
3,989,9,2,0,1502,0,2,1,0,1,1,652,29
3,990,9,2,0,1502,0,2,1,0,0,1,584,30
3,991,9,1,1,1501,1,2,1,0,0,1,539,31
3,992,9,2,0,1501,0,2,1,0,0,1,721,32
3,993,9,2,0,1501,1,2,1,0,0,1,671,33
3,994,9,2,0,1501,1,2,1,0,0,1,693,34
3,995,9,2,0,1501,1,2,1,0,0,1,628,35
3,996,9,1,1,1501,1,2,1,0,0,1,657,36
3,997,9,1,1,1501,1,2,0,1,0,1,907,37
3,998,9,2,0,1501,0,2,1,0,1,1,759,38
3,999,9,1,1,1501,0,2,1,0,0,1,728,39
3,1000,9,1,1,1501,1,2,0,1,0,1,453,40
3,1001,9,2,0,1501,0,2,0,1,1,1,636,41
3,1002,9,1,1,1501,0,2,1,0,1,1,644,42
3,1003,9,1,1,1501,1,2,1,0,0,1,589,43
3,1004,9,2,0,1501,0,2,1,0,0,1,725,44
3,1005,9,1,1,1501,0,2,1,0,0,1,701,45
3,1006,9,2,0,1502,0,2,1,0,0,1,795,46
3,1007,9,1,1,1502,0,2,0,1,0,1,777,47
3,1008,9,2,0,1501,0,2,0,0,1,0,721,48
3,1009,9,2,0,1501,1,2,1,0,0,1,605,49
3,1010,9,2,0,1501,0,2,0,1,0,1,730,50
3,1011,9,2,0,1501,1,2,1,0,1,1,940,51
3,1012,9,2,0,1502,1,2,0,0,0,0,990,52
3,1013,9,2,0,1501,0,2,0,1,0,1,749,53
3,1014,9,1,1,1501,0,2,1,0,1,1,981,54
3,1015,9,1,1,1501,0,2,0,1,0,1,791,55
3,1016,9,2,0,1501,1,2,1,0,1,1,865,56
3,1017,9,2,0,1501,1,2,0,1,0,1,707,57
3,1018,9,1,1,1501,0,2,1,0,1,1,684,58
3,1019,9,1,1,1501,1,2,0,0,0,0,817,59
3,1020,9,2,0,1501,0,2,0,1,0,1,624,60
3,1021,9,2,0,1501,1,2,0,1,1,1,760,61
3,1022,9,2,0,1501,0,2,1,0,1,1,742,62
3,1023,9,2,0,1501,0,2,1,0,0,1,540,63
3,1024,9,2,0,1501,1,2,1,0,0,1,605,64
3,1025,9,1,1,1501,0,2,1,0,0,1,607,65
3,1026,9,1,1,1502,0,2,1,0,0,1,654,66
3,1027,9,2,0,1502,1,2,1,0,0,1,675,67
3,1028,9,1,1,1501,0,2,2,0,0,0,1011,68
3,1029,9,2,0,1502,1,2,0,1,0,1,747,69
3,1030,9,1,1,1502,0,2,2,0,1,0,1011,70
3,1031,9,1,1,1501,0,2,0,1,0,1,748,71
3,1032,9,2,0,1501,1,2,1,0,1,1,651,72
3,1033,9,1,1,1501,1,2,0,1,0,1,724,73
3,1034,9,2,0,1501,1,2,0,0,1,0,653,74
3,1035,9,1,1,1501,0,2,0,0,0,0,531,75
3,1036,9,1,1,1502,0,2,0,1,0,1,562,76
3,1037,9,2,0,1502,1,2,1,0,1,1,621,77
3,1038,9,2,0,1501,1,2,0,0,0,0,568,78
3,1039,9,1,1,1501,0,2,0,0,0,0,534,79
3,1040,9,1,1,1501,0,2,1,0,0,1,484,80
3,1041,9,2,0,1501,1,2,1,0,0,1,615,81
3,1042,9,1,1,1502,1,2,2,0,0,0,1012,82
3,1043,9,1,1,1502,1,2,0,0,0,0,550,83
3,1044,9,1,1,1501,1,2,1,0,0,1,644,84
3,1045,9,1,1,1501,1,2,0,1,0,1,776,85
3,1046,9,1,1,1501,1,2,0,1,1,1,763,86
3,1047,9,1,1,1501,1,2,2,0,1,0,1011,87
3,1048,9,1,1,1501,1,2,0,0,0,0,674,88
3,1049,9,1,1,1502,1,2,1,0,0,1,612,89
3,1050,9,1,1,1501,1,2,0,1,0,1,845,90
3,1051,9,2,0,1501,0,2,1,0,1,1,750,91
3,1052,9,1,1,1502,1,2,1,0,0,1,712,92
3,1053,9,1,1,1501,1,2,0,1,0,1,712,93
3,1054,9,1,1,1502,0,2,1,0,1,1,561,94
3,1055,9,2,0,1501,1,2,1,0,0,1,672,95
3,1056,9,1,1,1501,0,2,1,0,0,1,602,96
3,1057,9,1,1,1501,0,2,0,0,0,0,705,97
3,1058,9,1,1,1501,0,2,0,0,0,0,626,98
3,1059,9,1,1,1502,0,2,1,0,0,1,714,99
3,1060,9,2,0,1502,0,2,0,1,0,1,656,100
3,1061,9,2,0,1501,1,2,1,0,1,1,784,101
3,1062,9,2,0,1501,1,2,0,0,0,0,876,102
3,1063,9,2,0,1502,0,2,1,0,0,1,854,103
3,1064,9,1,1,1501,0,2,1,0,0,1,561,104
3,1065,9,1,1,1501,1,2,1,0,0,1,606,105
3,1066,9,1,1,1501,1,2,0,1,0,1,587,106
3,1067,9,1,1,1501,0,2,1,0,1,1,568,107
3,1068,9,2,0,1501,1,2,1,0,0,1,607,108
3,1069,9,1,1,1501,1,2,0,1,0,1,812,109
3,1070,9,1,1,1501,0,2,1,0,1,1,602,110
3,1071,9,2,0,1502,1,2,0,0,0,0,976,111
3,1072,9,2,0,1502,0,2,0,0,0,0,825,112
3,1073,9,1,1,1503,1,2,1,0,0,1,775,113
3,1074,9,1,1,1502,1,2,1,0,0,1,978,114
3,1075,9,2,0,1501,1,2,2,0,0,0,1012,115
3,1076,9,2,0,1502,0,2,0,1,0,1,664,116
3,1077,9,1,1,1502,0,2,1,0,1,1,864,117
3,1078,9,2,0,1502,0,2,2,0,0,0,1012,118
3,1079,9,1,1,1502,1,2,1,0,0,1,788,119
3,1080,9,1,1,1502,1,2,0,0,0,0,803,120
3,1081,10,2,0,1502,0,1,1,0,0,1,664,1
3,1082,10,1,1,1501,1,1,1,0,0,1,763,2
3,1083,10,1,1,1501,1,1,0,0,0,0,656,3
3,1084,10,1,1,1501,1,1,1,0,0,1,640,4
3,1085,10,1,1,1501,1,1,0,0,0,0,639,5
3,1086,10,1,1,1501,1,1,1,0,0,1,802,6
3,1087,10,1,1,1502,0,1,1,0,0,1,661,7
3,1088,10,1,1,1501,1,1,0,0,0,0,884,8
3,1089,10,2,0,1502,0,1,1,0,0,1,654,9
3,1090,10,2,0,1502,1,1,1,0,0,1,629,10
3,1091,10,1,1,1501,0,1,1,0,0,1,672,11
3,1092,10,1,1,1501,1,1,1,0,0,1,664,12
3,1093,10,1,1,1502,1,1,1,0,0,1,823,13
3,1094,10,1,1,1501,1,1,1,0,0,1,885,14
3,1095,10,2,0,1501,0,1,1,0,0,1,765,15
3,1096,10,1,1,1502,1,1,2,0,0,0,1011,16
3,1097,10,1,1,1502,1,1,2,0,0,0,1010,17
3,1098,10,2,0,1501,1,1,0,0,0,0,690,18
3,1099,10,2,0,1501,1,1,1,0,0,1,670,19
3,1100,10,1,1,1501,1,1,1,0,0,1,742,20
3,1101,10,2,0,1502,1,1,1,0,0,1,606,21
3,1102,10,1,1,1502,0,1,1,0,0,1,588,22
3,1103,10,2,0,1502,0,1,1,0,0,1,735,23
3,1104,10,2,0,1501,0,1,1,0,0,1,761,24
3,1105,10,2,0,1501,0,1,1,0,0,1,616,25
3,1106,10,1,1,1501,1,1,1,0,0,1,589,26
3,1107,10,1,1,1501,0,1,1,0,0,1,614,27
3,1108,10,2,0,1501,0,1,1,0,0,1,635,28
3,1109,10,2,0,1501,1,1,1,0,0,1,745,29
3,1110,10,1,1,1501,0,1,1,0,0,1,634,30
3,1111,10,2,0,1501,0,1,1,0,0,1,755,31
3,1112,10,2,0,1502,1,1,1,0,0,1,560,32
3,1113,10,2,0,1501,1,1,1,0,0,1,668,33
3,1114,10,2,0,1502,0,1,1,0,0,1,615,34
3,1115,10,1,1,1501,1,1,2,0,0,0,1011,35
3,1116,10,1,1,1501,1,1,0,0,0,0,728,36
3,1117,10,1,1,1502,0,1,0,0,0,0,696,37
3,1118,10,1,1,1502,1,1,1,0,0,1,666,38
3,1119,10,1,1,1501,1,1,2,0,0,0,1011,39
3,1120,10,1,1,1501,0,1,1,0,0,1,571,40
3,1121,10,1,1,1501,1,1,0,0,0,0,552,41
3,1122,10,2,0,1502,1,1,1,0,0,1,674,42
3,1123,10,1,1,1501,0,1,1,0,0,1,607,43
3,1124,10,2,0,1501,0,1,0,0,0,0,546,44
3,1125,10,1,1,1502,0,1,1,0,0,1,550,45
3,1126,10,2,0,1501,0,1,0,0,0,0,601,46
3,1127,10,1,1,1501,1,1,1,0,0,1,521,47
3,1128,10,2,0,1501,0,1,1,0,0,1,551,48
3,1129,10,1,1,1501,1,1,0,0,0,0,522,49
3,1130,10,2,0,1501,1,1,1,0,0,1,772,50
3,1131,10,1,1,1501,0,1,1,0,0,1,631,51
3,1132,10,1,1,1501,0,1,1,0,0,1,713,52
3,1133,10,2,0,1501,1,1,0,0,0,0,748,53
3,1134,10,1,1,1502,0,1,1,0,0,1,582,54
3,1135,10,2,0,1501,1,1,2,0,0,0,1011,55
3,1136,10,1,1,1502,1,1,0,0,0,0,541,56
3,1137,10,2,0,1502,1,1,0,0,0,0,960,57
3,1138,10,2,0,1502,1,1,1,0,0,1,738,58
3,1139,10,1,1,1501,1,1,1,0,0,1,691,59
3,1140,10,1,1,1501,0,1,1,0,0,1,605,60
3,1141,10,1,1,1501,1,1,0,0,0,0,711,61
3,1142,10,2,0,1501,1,1,1,0,0,1,691,62
3,1143,10,1,1,1502,0,1,1,0,0,1,639,63
3,1144,10,2,0,1501,1,1,1,0,0,1,578,64
3,1145,10,2,0,1501,0,1,1,0,0,1,572,65
3,1146,10,2,0,1502,0,1,1,0,0,1,722,66
3,1147,10,2,0,1501,0,1,1,0,0,1,614,67
3,1148,10,2,0,1501,1,1,1,0,0,1,888,68
3,1149,10,2,0,1501,1,1,1,0,0,1,579,69
3,1150,10,2,0,1502,1,1,1,0,0,1,529,70
3,1151,10,1,1,1501,0,1,1,0,0,1,583,71
3,1152,10,2,0,1501,1,1,1,0,0,1,600,72
3,1153,10,2,0,1502,1,1,1,0,0,1,617,73
3,1154,10,1,1,1501,1,1,0,0,0,0,552,74
3,1155,10,2,0,1501,0,1,1,0,0,1,656,75
3,1156,10,2,0,1501,0,1,1,0,0,1,541,76
3,1157,10,2,0,1501,1,1,0,0,0,0,727,77
3,1158,10,1,1,1501,0,1,0,0,0,0,1000,78
3,1159,10,2,0,1501,0,1,1,0,0,1,623,79
3,1160,10,2,0,1501,0,1,1,0,0,1,595,80
3,1161,10,2,0,1501,1,1,1,0,0,1,604,81
3,1162,10,1,1,1501,1,1,0,0,0,0,621,82
3,1163,10,2,0,1501,1,1,1,0,0,1,513,83
3,1164,10,1,1,1501,1,1,1,0,0,1,638,84
3,1165,10,2,0,1501,1,1,1,0,0,1,677,85
3,1166,10,1,1,1501,0,1,1,0,0,1,545,86
3,1167,10,1,1,1502,1,1,1,0,0,1,592,87
3,1168,10,2,0,1501,1,1,0,0,0,0,469,88
3,1169,10,2,0,1501,1,1,1,0,0,1,596,89
3,1170,10,1,1,1501,1,1,1,0,0,1,687,90
3,1171,10,2,0,1502,1,1,1,0,0,1,620,91
3,1172,10,1,1,1501,0,1,1,0,0,1,483,92
3,1173,10,2,0,1501,1,1,1,0,0,1,541,93
3,1174,10,2,0,1501,0,1,1,0,0,1,509,94
3,1175,10,2,0,1502,0,1,0,0,0,0,476,95
3,1176,10,1,1,1501,0,1,1,0,0,1,681,96
3,1177,10,2,0,1502,0,1,1,0,0,1,606,97
3,1178,10,2,0,1501,0,1,1,0,0,1,498,98
3,1179,10,2,0,1501,0,1,1,0,0,1,486,99
3,1180,10,2,0,1502,0,1,1,0,0,1,530,100
3,1181,10,2,0,1501,1,1,1,0,0,1,730,101
3,1182,10,1,1,1501,0,1,0,0,0,0,638,102
3,1183,10,2,0,1502,0,1,1,0,0,1,595,103
3,1184,10,2,0,1501,0,1,1,0,0,1,549,104
3,1185,10,1,1,1501,1,1,1,0,0,1,813,105
3,1186,10,1,1,1501,1,1,0,0,0,0,555,106
3,1187,10,1,1,1501,0,1,1,0,0,1,675,107
3,1188,10,2,0,1501,1,1,0,0,0,0,590,108
3,1189,10,1,1,1501,1,1,0,0,0,0,569,109
3,1190,10,2,0,1501,0,1,1,0,0,1,580,110
3,1191,10,1,1,1501,0,1,1,0,0,1,757,111
3,1192,10,1,1,1502,0,1,1,0,0,1,579,112
3,1193,10,2,0,1502,1,1,1,0,0,1,557,113
3,1194,10,2,0,1501,1,1,1,0,0,1,649,114
3,1195,10,2,0,1501,1,1,0,0,0,0,782,115
3,1196,10,2,0,1502,1,1,1,0,0,1,685,116
3,1197,10,2,0,1501,1,1,1,0,0,1,732,117
3,1198,10,2,0,1501,0,1,1,0,0,1,580,118
3,1199,10,1,1,1501,0,1,1,0,0,1,578,119
3,1200,10,2,0,1501,1,1,0,0,0,0,772,120
3,1201,11,1,1,1501,1,3,1,0,0,1,692,1
3,1202,11,1,1,1501,1,3,0,1,0,1,611,2
3,1203,11,1,1,1501,0,3,1,0,1,1,718,3
3,1204,11,1,1,1502,0,3,1,0,0,1,660,4
3,1205,11,1,1,1502,0,3,1,0,0,1,767,5
3,1206,11,2,0,1501,1,3,2,0,0,0,1011,6
3,1207,11,1,1,1502,1,3,0,1,0,1,888,7
3,1208,11,1,1,1501,1,3,2,0,1,0,1012,8
3,1209,11,2,0,1501,0,3,0,0,0,0,705,9
3,1210,11,2,0,1501,1,3,1,0,0,1,846,10
3,1211,11,1,1,1501,1,3,0,0,0,0,692,11
3,1212,11,2,0,1501,1,3,0,1,0,1,778,12
3,1213,11,2,0,1501,1,3,1,0,1,1,940,13
3,1214,11,2,0,1501,0,3,1,0,0,1,995,14
3,1215,11,1,1,1501,0,3,0,0,0,0,817,15
3,1216,11,1,1,1502,1,3,1,0,0,1,787,16
3,1217,11,2,0,1501,1,3,0,0,0,0,966,17
3,1218,11,2,0,1501,0,3,0,0,0,0,816,18
3,1219,11,1,1,1501,1,3,0,1,0,1,716,19
3,1220,11,2,0,1501,1,3,0,0,1,0,778,20
3,1221,11,1,1,1501,0,3,1,0,0,1,714,21
3,1222,11,2,0,1501,1,3,1,0,0,1,574,22
3,1223,11,1,1,1501,1,3,0,1,0,1,728,23
3,1224,11,2,0,1501,1,3,0,0,1,0,802,24
3,1225,11,1,1,1501,0,3,1,0,0,1,733,25
3,1226,11,2,0,1501,1,3,1,0,0,1,627,26
3,1227,11,2,0,1502,1,3,1,0,0,1,595,27
3,1228,11,2,0,1502,0,3,0,1,0,1,578,28
3,1229,11,2,0,1502,1,3,0,0,1,0,645,29
3,1230,11,2,0,1501,1,3,1,0,0,1,570,30
3,1231,11,2,0,1501,0,3,0,0,0,0,566,31
3,1232,11,2,0,1501,1,3,1,0,0,1,789,32
3,1233,11,2,0,1501,0,3,1,0,0,1,595,33
3,1234,11,2,0,1501,0,3,0,1,0,1,758,34
3,1235,11,2,0,1501,0,3,1,0,1,1,785,35
3,1236,11,2,0,1502,0,3,0,1,0,1,737,36
3,1237,11,1,1,1501,0,3,0,0,1,0,945,37
3,1238,11,1,1,1502,0,3,0,1,0,1,753,38
3,1239,11,1,1,1501,0,3,2,0,1,0,1011,39
3,1240,11,1,1,1501,1,3,0,0,0,0,550,40
3,1241,11,1,1,1501,0,3,0,0,0,0,585,41
3,1242,11,2,0,1502,1,3,1,0,0,1,828,42
3,1243,11,2,0,1501,1,3,1,0,0,1,601,43
3,1244,11,1,1,1501,1,3,0,0,0,0,653,44
3,1245,11,1,1,1501,0,3,0,0,0,0,755,45
3,1246,11,2,0,1501,1,3,0,1,0,1,619,46
3,1247,11,2,0,1501,1,3,0,0,1,0,687,47
3,1248,11,1,1,1501,1,3,1,0,0,1,585,48
3,1249,11,2,0,1501,1,3,1,0,0,1,949,49
3,1250,11,2,0,1501,1,3,0,1,0,1,632,50
3,1251,11,2,0,1501,1,3,0,1,1,1,856,51
3,1252,11,1,1,1501,1,3,1,0,1,1,601,52
3,1253,11,1,1,1501,0,3,1,0,0,1,812,53
3,1254,11,2,0,1502,0,3,1,0,0,1,624,54
3,1255,11,1,1,1502,0,3,0,1,0,1,680,55
3,1256,11,1,1,1501,1,3,1,0,1,1,805,56
3,1257,11,1,1,1501,0,3,1,0,0,1,656,57
3,1258,11,2,0,1501,0,3,0,0,0,0,632,58
3,1259,11,1,1,1501,0,3,2,0,0,0,1011,59
3,1260,11,1,1,1502,0,3,1,0,0,1,621,60
3,1261,11,1,1,1501,0,3,0,0,0,0,709,61
3,1262,11,2,0,1501,0,3,1,0,0,1,728,62
3,1263,11,1,1,1501,1,3,1,0,0,1,606,63
3,1264,11,2,0,1501,1,3,1,0,0,1,585,64
3,1265,11,1,1,1502,0,3,0,0,0,0,570,65
3,1266,11,1,1,1501,0,3,0,0,0,0,594,66
3,1267,11,2,0,1501,1,3,1,0,0,1,759,67
3,1268,11,2,0,1501,0,3,0,1,0,1,733,68
3,1269,11,1,1,1501,0,3,1,0,1,1,849,69
3,1270,11,2,0,1501,0,3,0,1,0,1,803,70
3,1271,11,1,1,1502,0,3,1,0,1,1,641,71
3,1272,11,2,0,1501,1,3,0,1,0,1,533,72
3,1273,11,2,0,1501,1,3,1,0,1,1,923,73
3,1274,11,2,0,1501,1,3,1,0,0,1,971,74
3,1275,11,1,1,1502,1,3,1,0,0,1,898,75
3,1276,11,2,0,1501,1,3,0,1,0,1,828,76
3,1277,11,2,0,1501,0,3,1,0,1,1,650,77
3,1278,11,1,1,1502,0,3,1,0,0,1,710,78
3,1279,11,2,0,1501,1,3,1,0,0,1,617,79
3,1280,11,2,0,1501,0,3,1,0,0,1,866,80
3,1281,11,1,1,1501,0,3,0,0,0,0,665,81
3,1282,11,1,1,1501,1,3,1,0,0,1,577,82
3,1283,11,2,0,1501,1,3,2,0,0,0,1011,83
3,1284,11,2,0,1501,0,3,0,1,0,1,692,84
3,1285,11,2,0,1502,1,3,0,0,1,0,822,85
3,1286,11,2,0,1501,0,3,0,1,0,1,672,86
3,1287,11,1,1,1502,1,3,1,0,1,1,854,87
3,1288,11,1,1,1502,0,3,2,0,0,0,1010,88
3,1289,11,2,0,1501,0,3,1,0,0,1,781,89
3,1290,11,2,0,1501,0,3,1,0,0,1,631,90
3,1291,11,1,1,1503,1,3,0,1,0,1,633,91
3,1292,11,1,1,1502,0,3,0,1,1,1,901,92
3,1293,11,2,0,1501,0,3,0,1,1,1,753,93
